onset	duration	trial	sync_side	key	dominant
0.0	n/a	start_rivalry	left	n/a	n/a
13.37847822997719	n/a	keypress	left	left	synchronous
14.224543894641101	0.8460656646639109	keypress	left	right	asynchronous
15.817483480088413	1.5929395854473114	keypress	left	left	synchronous
17.302098220214248	1.484614740125835	keypress	left	right	asynchronous
19.319673728197813	2.0175755079835653	keypress	left	left	synchronous
21.924997500143945	2.605323771946132	keypress	left	right	asynchronous
26.841386896558106	4.916389396414161	keypress	left	left	synchronous
30.928676347248256	4.08728945069015	keypress	left	right	asynchronous
32.88988268747926	1.9612063402310014	keypress	left	left	synchronous
36.87427247595042	3.9843897884711623	keypress	left	right	asynchronous
41.123743215575814	4.249470739625394	keypress	left	left	synchronous
45.05029247701168	3.9265492614358664	keypress	left	right	asynchronous
47.70063062943518	2.650338152423501	keypress	left	left	synchronous
49.924145463854074	2.223514834418893	keypress	left	right	asynchronous
52.418156451545656	2.4940109876915812	keypress	left	left	synchronous
54.70018553733826	2.282029085792601	keypress	left	right	asynchronous
56.7164030270651	2.0162174897268414	keypress	left	left	synchronous
58.94304815586656	2.226645128801465	keypress	left	right	asynchronous
61.2818996058777	2.338851450011134	keypress	left	left	synchronous
63.034709175117314	1.7528095692396164	keypress	left	right	asynchronous
65.10032549034804	2.065616315230727	keypress	left	left	synchronous
68.23399713356048	3.1336716432124376	keypress	left	right	asynchronous
70.73447258025408	2.5004754466935992	keypress	left	left	synchronous
73.38208514358848	2.6476125633344054	keypress	left	right	asynchronous
74.23274042084813	0.8506552772596478	keypress	left	left	synchronous
77.20668279659003	2.973942375741899	keypress	left	right	asynchronous
78.26819939073175	1.0615165941417217	keypress	left	left	synchronous
79.80346043314785	1.5352610424160957	keypress	left	right	asynchronous
81.23609278723598	1.4326323540881276	keypress	left	left	synchronous
83.30523199494928	2.069139207713306	keypress	left	right	asynchronous
84.63609400670975	1.3308620117604733	keypress	left	left	synchronous
87.18653136398643	2.550437357276678	keypress	left	right	asynchronous
89.67869899701327	2.4921676330268383	keypress	left	left	synchronous
91.16946803312749	1.4907690361142159	keypress	left	right	asynchronous
92.33461286686361	1.1651448337361217	keypress	left	left	synchronous
94.03561448119581	1.701001614332199	keypress	left	right	asynchronous
97.05683041270822	3.0212159315124154	keypress	left	left	synchronous
98.54264869075269	1.4858182780444622	keypress	left	right	asynchronous
100.13222960848361	1.5895809177309275	keypress	left	left	synchronous
102.2017142334953	2.0694846250116825	keypress	left	right	asynchronous
104.00433572288603	1.8026214893907309	keypress	left	left	synchronous
106.17612814065069	2.1717924177646637	keypress	left	right	asynchronous
108.45417402125895	2.2780458806082606	keypress	left	left	synchronous
112.38571293279529	3.931538911536336	keypress	left	right	asynchronous
114.1393802864477	1.7536673536524177	keypress	left	left	synchronous
115.73389274161309	1.5945124551653862	keypress	left	right	asynchronous
117.59204347990453	1.8581507382914424	keypress	left	left	synchronous
119.65735833905637	2.06531485915184	keypress	left	right	asynchronous
122.3116333335638	2.654274994507432	keypress	left	left	synchronous
123.58552602026612	1.273892686702311	keypress	left	right	asynchronous
127.72730407305062	4.1417780527845025	keypress	left	left	synchronous
132.71071070525795	4.983406632207334	keypress	left	right	asynchronous
134.68119495362043	1.9704842483624816	keypress	left	left	synchronous
137.8140087481588	3.1328137945383787	keypress	left	right	asynchronous
139.8343727523461	2.020364004187286	keypress	left	left	synchronous
142.17417116928846	2.339798416942358	keypress	left	right	asynchronous
145.83234895113856	3.6581777818500996	keypress	left	left	synchronous
149.28288923110813	3.450540279969573	keypress	left	right	asynchronous
150.9827976245433	1.6999083934351802	keypress	left	left	synchronous
152.78916685283184	1.8063692282885313	keypress	left	right	asynchronous
154.43617531098425	1.6470084581524134	keypress	left	left	synchronous
156.55853223614395	2.1223569251596928	keypress	left	right	asynchronous
159.42385955434293	2.865327318198979	keypress	left	left	synchronous
161.91831837780774	2.494458823464811	keypress	left	right	asynchronous
163.98487206548452	2.0665536876767874	keypress	left	left	synchronous
166.9591162931174	2.97424422763288	keypress	left	right	asynchronous
168.44417683966458	1.4850605465471745	keypress	left	left	synchronous
170.56781419180334	2.1236373521387577	keypress	left	right	asynchronous
172.63765615224838	2.0698419604450464	keypress	left	left	synchronous
175.7166644781828	3.07900832593441	keypress	left	right	asynchronous
177.25818909332156	1.5415246151387691	keypress	left	left	synchronous
179.01297051087022	1.7547814175486565	keypress	left	right	asynchronous
181.13624134194106	2.1232708310708404	keypress	left	left	synchronous
184.0598748093471	2.9236334674060345	keypress	left	right	asynchronous
185.3327994691208	1.2729246597737074	keypress	left	left	synchronous
186.92945075128227	1.5966512821614742	keypress	left	right	asynchronous
188.7329958518967	1.8035451006144285	keypress	left	left	synchronous
193.62403255701065	4.891036705113947	keypress	left	right	asynchronous
195.53535237256438	1.9113198155537248	keypress	left	left	synchronous
196.86603151168674	1.330679139122367	keypress	left	right	asynchronous
199.14576949272305	2.2797379810363054	keypress	left	left	synchronous
200.5766324037686	1.4308629110455513	keypress	left	right	asynchronous
202.38444684818387	1.8078144444152713	keypress	left	left	synchronous
204.45351955201477	2.069072703830898	keypress	left	right	asynchronous
206.10161755047739	1.6480979984626174	keypress	left	left	synchronous
208.59635012224317	2.4947325717657804	keypress	left	right	asynchronous
212.30601619463414	3.7096660723909736	keypress	left	left	synchronous
215.28195623867214	2.9759400440379977	keypress	left	right	asynchronous
216.66148842684925	1.3795321881771088	keypress	left	left	synchronous
219.36685951799154	2.705371091142297	keypress	left	right	asynchronous
220.53193285223097	1.1650733342394233	keypress	left	left	synchronous
222.71009295620024	2.178160103969276	keypress	left	right	asynchronous
224.41008123289794	1.6999882766976953	keypress	left	left	synchronous
227.59513011295348	3.1850488800555468	keypress	left	right	asynchronous
231.04119486361742	3.446064750663936	keypress	left	left	synchronous
235.86550918594003	4.824314322322607	keypress	left	right	asynchronous
239.6307200100273	3.765210824087262	keypress	left	left	synchronous
242.4996504317969	2.868930421769619	keypress	left	right	asynchronous
244.99334322474897	2.4936927929520607	keypress	left	left	synchronous
247.11417183931917	2.1208286145702004	keypress	left	right	asynchronous
248.65503548644483	1.5408636471256614	keypress	left	left	synchronous
252.58634085394442	3.93130536749959	keypress	left	right	asynchronous
255.39529039803892	2.808949544094503	keypress	left	left	synchronous
264.296935047023	8.901644648984075	keypress	left	right	asynchronous
265.9945831755176	1.6976481284946203	keypress	left	left	synchronous
270.4014873281121	4.406904152594507	keypress	left	right	asynchronous
271.46246309485286	1.0609757667407393	keypress	left	left	synchronous
272.9509425582364	1.4884794633835554	keypress	left	right	asynchronous
276.6671872138977	3.716244655661285	keypress	left	left	synchronous
278.69213507696986	2.024947863072157	keypress	left	right	asynchronous
280.4431130271405	1.7509779501706362	keypress	left	left	synchronous
284.583524976857	4.140411949716508	keypress	left	right	asynchronous
285.90854688268155	1.325021905824542	keypress	left	left	synchronous
288.41391710564494	2.5053702229633927	keypress	left	right	asynchronous
289.74146347213537	1.3275463664904237	keypress	left	left	synchronous
291.8100962135941	2.068632741458714	keypress	left	right	asynchronous
292.9762846827507	1.1661884691566229	keypress	left	left	synchronous
294.40835486352444	1.432070180773735	keypress	left	right	asynchronous
297.86211482435465	3.4537599608302116	keypress	left	left	synchronous
300.35193036776036	2.4898155434057117	keypress	left	right	asynchronous
302.7873000828549	2.4353697150945663	keypress	left	left	synchronous
308.6169726876542	5.829672604799271	keypress	left	right	asynchronous
314.77583955135196	6.158866863697767	keypress	left	left	synchronous
319.4989188546315	4.723079303279519	keypress	left	right	asynchronous
321.83161607943475	2.332697224803269	keypress	left	left	synchronous
327.56750370096415	5.7358876215294	keypress	left	right	asynchronous
329.3700942154974	1.8025905145332217	keypress	left	left	synchronous
332.81203873548657	3.4419445199891925	keypress	left	right	asynchronous
336.2668532812968	3.4548145458102226	keypress	left	left	synchronous
338.5998465232551	2.33299324195832	keypress	left	right	asynchronous
340.5637885732576	1.9639420500025153	keypress	left	left	synchronous
343.10831517353654	2.544526600278914	keypress	left	right	asynchronous
345.01950201019645	1.9111868366599083	keypress	left	left	synchronous
347.1945177754387	2.1750157652422786	keypress	left	right	asynchronous
348.6803145557642	1.4857967803254724	keypress	left	left	synchronous
350.2733197985217	1.5930052427574992	keypress	left	right	asynchronous
351.38439648784697	1.111076689325273	keypress	left	left	synchronous
354.19426378421485	2.8098672963678837	keypress	left	right	asynchronous
356.5346542466432	2.3403904624283314	keypress	left	left	synchronous
357.2283353805542	0.6936811339110136	keypress	left	right	asynchronous
358.71170624997467	1.4833708694204688	keypress	left	left	synchronous
361.4264215119183	2.7147152619436383	keypress	left	right	asynchronous
364.55554452724755	3.1291230153292418	keypress	left	left	synchronous
365.1426345203072	0.5870899930596352	keypress	left	right	asynchronous
367.0499461973086	1.9073116770014167	keypress	left	left	synchronous
369.96684594545513	2.916899748146534	keypress	left	right	asynchronous
371.07966784760356	1.1128219021484256	keypress	left	left	synchronous
373.57389391120523	2.4942260636016726	keypress	left	right	asynchronous
376.54452156834304	2.970627657137811	keypress	left	left	synchronous
378.0330521548167	1.4885305864736438	keypress	left	right	asynchronous
379.9935345556587	1.960482400842011	keypress	left	left	synchronous
382.38311373535544	2.3895791796967387	keypress	left	right	asynchronous
384.3457328751683	1.9626191398128867	keypress	left	left	synchronous
386.73027798347175	2.3845451083034277	keypress	left	right	asynchronous
388.0554392552003	1.3251612717285752	keypress	left	left	synchronous
390.4424332687631	2.3869940135627985	keypress	left	right	asynchronous
391.7671524910256	1.3247192222625017	keypress	left	left	synchronous
393.15001094993204	1.3828584589064121	keypress	left	right	asynchronous
396.1738586779684	3.023847728036344	keypress	left	left	synchronous
398.1896044826135	2.015745804645121	keypress	left	right	asynchronous
401.9618581077084	3.7722536250948906	keypress	left	left	synchronous
405.56168568506837	3.5998275773599744	keypress	left	right	asynchronous
407.31436330266297	1.7526776175945997	keypress	left	left	synchronous
412.0346253057942	4.720262003131211	keypress	left	right	asynchronous
413.09374205302447	1.0591167472302914	keypress	left	left	synchronous
413.83474923018366	0.7410071771591902	keypress	left	right	asynchronous
415.2663845606148	1.4316353304311633	keypress	left	left	synchronous
418.6602043202147	3.3938197595998645	keypress	left	right	asynchronous
419.3518517035991	0.6916473833844066	keypress	left	left	synchronous
422.32516484335065	2.9733131397515535	keypress	left	right	asynchronous
426.04359064623713	3.718425802886486	keypress	left	left	synchronous
428.867582725361	2.8239920791238546	keypress	left	right	asynchronous
429.9273048369214	1.0597221115604043	keypress	left	left	synchronous
430.51100162696093	0.5836967900395393	keypress	left	right	asynchronous
431.7894474910572	1.278445864096284	keypress	left	left	synchronous
434.761148320511	2.9717008294537663	keypress	left	right	asynchronous
436.7757935738191	2.0146452533081174	keypress	left	left	synchronous
438.78748742025346	2.011693846434355	keypress	left	right	asynchronous
439.42734301649034	0.6398555962368846	keypress	left	left	synchronous
442.3990184739232	2.971675457432866	keypress	left	right	asynchronous
443.99367311410606	1.5946546401828527	keypress	left	left	synchronous
446.5388377737254	2.5451646596193314	keypress	left	right	asynchronous
448.08053726144135	1.5416994877159595	keypress	left	left	synchronous
450.6223227372393	2.541785475797951	keypress	left	right	asynchronous
452.74450302217156	2.1221802849322557	keypress	left	left	synchronous
454.28304276335984	1.5385397411882877	keypress	left	right	asynchronous
455.97848643828183	1.6954436749219894	keypress	left	left	synchronous
458.04573251400143	2.067246075719595	keypress	left	right	asynchronous
459.4220163822174	1.3762838682159781	keypress	left	left	synchronous
461.3336020568386	1.9115856746211648	keypress	left	right	asynchronous
462.5011384738609	1.1675364170223475	keypress	left	left	synchronous
464.9979128623381	2.4967743884772062	keypress	left	right	asynchronous
466.6418038252741	1.6438909629359841	keypress	left	left	synchronous
469.34280884452164	2.701005019247532	keypress	left	right	asynchronous
470.5071249138564	1.1643160693347454	keypress	left	left	synchronous
473.4238060358912	2.916681122034788	keypress	left	right	asynchronous
476.13443516008556	2.7106291241943836	keypress	left	left	synchronous
478.2054069926962	2.0709718326106668	keypress	left	right	asynchronous
481.3316019894555	3.1261949967592955	keypress	left	left	synchronous
484.5142519297078	3.182649940252304	keypress	left	right	asynchronous
486.3190555088222	1.8048035791143775	keypress	left	left	synchronous
488.55191799998283	2.232862491160631	keypress	left	right	asynchronous
490.7240179013461	2.1720999013632536	keypress	left	left	synchronous
493.16416685376316	2.4401489524170756	keypress	left	right	asynchronous
495.4976085135713	2.333441659808159	keypress	left	left	synchronous
498.67745836265385	3.1798498490825295	keypress	left	right	asynchronous
500.3217487670481	1.644290404394269	keypress	left	left	synchronous
501.70030735619366	1.3785585891455412	keypress	left	right	asynchronous
503.92133046872914	2.2210231125354767	keypress	left	left	synchronous
506.0412468537688	2.119916385039687	keypress	left	right	asynchronous
507.1023362018168	1.0610893480479717	keypress	left	left	synchronous
511.1887370524928	4.086400850676	keypress	left	right	asynchronous
512.0364259891212	0.8476889366284013	keypress	left	left	synchronous
514.7964820396155	2.7600560504943132	keypress	left	right	asynchronous
517.1890381705016	2.392556130886078	keypress	left	left	synchronous
518.8845001030713	1.6954619325697422	keypress	left	right	asynchronous
521.2227789089084	2.338278805837035	keypress	left	left	synchronous
523.7661816366017	2.5434027276933193	keypress	left	right	asynchronous
525.9432314261794	2.1770497895777225	keypress	left	left	synchronous
527.5893811993301	1.6461497731506824	keypress	left	right	asynchronous
529.126033145003	1.5366519456729293	keypress	left	left	synchronous
532.3566137431189	3.230580598115921	keypress	left	right	asynchronous
535.7575527159497	3.4009389728307724	keypress	left	left	synchronous
537.9336552806199	2.1761025646701455	keypress	left	right	asynchronous
540.746641705744	2.812986425124109	keypress	left	left	synchronous
544.4080549394712	3.6614132337272167	keypress	left	right	asynchronous
547.6435920475051	3.2355371080338955	keypress	left	left	synchronous
548.2283501792699	0.5847581317648292	keypress	left	right	asynchronous
549.5020748730749	1.2737246938049793	keypress	left	left	synchronous
552.4226613165811	2.9205864435061812	keypress	left	right	asynchronous
556.7685271836817	4.345865867100656	keypress	left	left	synchronous
559.7371676266193	2.9686404429376125	keypress	left	right	asynchronous
561.0642987992615	1.3271311726421118	keypress	left	left	synchronous
563.8243657248095	2.760066925548017	keypress	left	right	asynchronous
566.5865325098857	2.7621667850762606	keypress	left	left	synchronous
570.1927685989067	3.6062360890209675	keypress	left	right	asynchronous
571.9942269846797	1.801458385773003	keypress	left	left	synchronous
574.9129838813096	2.9187568966299295	keypress	left	right	asynchronous
576.8741277903318	1.961143909022212	keypress	left	left	synchronous
578.4659394631162	1.591811672784388	keypress	left	right	asynchronous
580.0029686689377	1.5370292058214545	keypress	left	left	synchronous
582.2330602873117	2.23009161837399	keypress	left	right	asynchronous
584.2962771328166	2.0632168455049396	keypress	left	left	synchronous
587.7490466060117	3.452769473195076	keypress	left	right	asynchronous
589.3414743244648	1.5924277184531093	keypress	left	left	synchronous
591.0922659141943	1.750791589729488	keypress	left	right	asynchronous
592.9502419121563	1.8579759979620576	keypress	left	left	synchronous
595.5545348199084	2.6042929077520967	keypress	left	right	asynchronous
598.5830615386367	n/a	keypress	left	left	synchronous
600.0113356700167	n/a	end_rivalry	left	n/a	n/a
