onset	duration	trial	sync_side	key	dominant
0.0	n/a	start_rivalry	left	n/a	n/a
1.861664141062647	n/a	keypress	left	left	synchronous
4.782065193168819	2.920401052106172	keypress	left	right	asynchronous
6.216313658282161	1.4342484651133418	keypress	left	left	synchronous
7.966941111255437	1.7506274529732764	keypress	left	right	asynchronous
10.13866700232029	2.1717258910648525	keypress	left	left	synchronous
11.567126224283129	1.4284592219628394	keypress	left	right	asynchronous
12.630250561982393	1.0631243376992643	keypress	left	left	synchronous
13.532304557040334	0.9020539950579405	keypress	left	right	asynchronous
14.80484291817993	1.2725383611395955	keypress	left	left	synchronous
17.509028892964125	2.7041859747841954	keypress	left	right	asynchronous
19.048067403957248	1.539038510993123	keypress	left	left	synchronous
20.21908996300772	1.1710225590504706	keypress	left	right	asynchronous
22.763689367100596	2.544599404092878	keypress	left	left	synchronous
24.51517564803362	1.7514862809330225	keypress	left	right	asynchronous
25.897918396163732	1.3827427481301129	keypress	left	left	synchronous
27.17149927141145	1.273580875247717	keypress	left	right	asynchronous
28.602525043301284	1.4310257718898356	keypress	left	left	synchronous
29.717925870325416	1.115400827024132	keypress	left	right	asynchronous
30.4620290719904	0.7441032016649842	keypress	left	left	synchronous
32.21176419407129	1.7497351220808923	keypress	left	right	asynchronous
33.43116787541658	1.219403681345284	keypress	left	left	synchronous
35.55055457632989	2.11938670091331	keypress	left	right	asynchronous
38.256922346074134	2.706367769744247	keypress	left	left	synchronous
39.37222196906805	1.1152996229939163	keypress	left	right	asynchronous
40.80518060317263	1.4329586341045797	keypress	left	left	synchronous
41.33827320439741	0.5330926012247801	keypress	left	right	asynchronous
42.50692924717441	1.1686560427770019	keypress	left	left	synchronous
44.90717512834817	2.4002458811737597	keypress	left	right	asynchronous
46.500554534140974	1.5933794057928026	keypress	left	left	synchronous
47.722941583022475	1.222387048881501	keypress	left	right	asynchronous
48.41278311703354	0.689841534011066	keypress	left	left	synchronous
49.42539140814915	1.0126082911156118	keypress	left	right	asynchronous
50.114174579270184	0.688783171121031	keypress	left	left	synchronous
51.81208538636565	1.697910807095468	keypress	left	right	asynchronous
52.76545295212418	0.9533675657585263	keypress	left	left	synchronous
54.03875929908827	1.273306346964091	keypress	left	right	asynchronous
55.6301775299944	1.5914182309061289	keypress	left	left	synchronous
56.48099846811965	0.8508209381252527	keypress	left	right	asynchronous
58.28083634702489	1.7998378789052367	keypress	left	left	synchronous
59.70946481637657	1.428628469351679	keypress	left	right	asynchronous
61.3564911140129	1.6470262976363301	keypress	left	left	synchronous
63.48243375821039	2.125942644197494	keypress	left	right	asynchronous
67.78514904016629	4.302715281955898	keypress	left	left	synchronous
69.80502032814547	2.0198712879791856	keypress	left	right	asynchronous
71.66081966320053	1.8557993350550532	keypress	left	left	synchronous
75.53327591018751	3.872456246986985	keypress	left	right	asynchronous
78.03213768731803	2.4988617771305144	keypress	left	left	synchronous
79.67329062102363	1.6411529337055981	keypress	left	right	asynchronous
82.74715724308044	3.073866622056812	keypress	left	left	synchronous
84.60539475595579	1.8582375128753483	keypress	left	right	asynchronous
86.88429819326848	2.2789034373126924	keypress	left	left	synchronous
89.32991294609383	2.4456147528253496	keypress	left	right	asynchronous
91.34938138909638	2.019468443002552	keypress	left	left	synchronous
94.05376208340749	2.704380694311112	keypress	left	right	asynchronous
95.91368641611189	1.859924332704395	keypress	left	left	synchronous
99.045892406255	3.1322059901431203	keypress	left	right	asynchronous
114.17502854531631	15.129136139061302	keypress	left	left	synchronous
116.13512857304886	1.960100027732551	keypress	left	right	asynchronous
147.33383978996426	31.1987112169154	keypress	left	left	synchronous
148.7657270161435	1.4318872261792421	keypress	left	right	asynchronous
156.19134161341935	7.425614597275853	keypress	left	left	synchronous
160.75897002313286	4.567628409713507	keypress	left	right	asynchronous
181.55421028425917	20.79524026112631	keypress	left	left	synchronous
184.51844190526754	2.9642316210083663	keypress	left	right	asynchronous
185.78834314038977	1.2699012351222336	keypress	left	left	synchronous
189.92832934716716	4.139986206777394	keypress	left	right	asynchronous
212.8990998789668	22.970770531799644	keypress	left	left	synchronous
214.17425912525505	1.27515924628824	keypress	left	right	asynchronous
237.15347972838208	22.979220603127033	keypress	left	left	synchronous
239.11303623905405	1.9595565106719732	keypress	left	right	asynchronous
241.97346282098442	2.860426581930369	keypress	left	left	synchronous
244.67558033997193	2.7021175189875066	keypress	left	right	asynchronous
249.60244896402583	4.9268686240538955	keypress	left	left	synchronous
251.08732934622094	1.484880382195115	keypress	left	right	asynchronous
253.89143146807328	2.8041021218523383	keypress	left	left	synchronous
254.84884244436398	0.9574109762907028	keypress	left	right	asynchronous
258.8806645651348	4.031822120770812	keypress	left	left	synchronous
261.37380434712395	2.493139781989157	keypress	left	right	asynchronous
263.81799472216517	2.4441903750412166	keypress	left	left	synchronous
276.28006410226226	12.462069380097091	keypress	left	right	asynchronous
278.40701921097934	2.126955108717084	keypress	left	left	synchronous
281.2192019033246	2.8121826923452318	keypress	left	right	asynchronous
282.91891923034564	1.6997173270210624	keypress	left	left	synchronous
285.8904372062534	2.971517975907773	keypress	left	right	asynchronous
287.42916630441323	1.5387290981598198	keypress	left	left	synchronous
290.1332537070848	2.7040874026715755	keypress	left	right	asynchronous
291.4616700252518	1.328416318167001	keypress	left	left	synchronous
294.07099777599797	2.6093277507461607	keypress	left	right	asynchronous
296.24338358128443	2.172385805286467	keypress	left	left	synchronous
298.8975231423974	2.65413956111297	keypress	left	right	asynchronous
308.92339657014236	10.025873427744955	keypress	left	left	synchronous
310.6207036310807	1.6973070609383285	keypress	left	right	asynchronous
312.7432847809978	2.122581149917096	keypress	left	left	synchronous
316.6646035243757	3.921318743377924	keypress	left	right	asynchronous
318.36000801995397	1.6954044955782592	keypress	left	left	synchronous
319.63070421805605	1.2706961981020868	keypress	left	right	asynchronous
321.43713330011815	1.8064290820620954	keypress	left	left	synchronous
323.56128987297416	2.124156572856009	keypress	left	right	asynchronous
328.0794638823718	4.518174009397626	keypress	left	left	synchronous
331.2082328661345	3.1287689837627113	keypress	left	right	asynchronous
332.2657348071225	1.0575019409880042	keypress	left	left	synchronous
335.81981379399076	3.5540789868682623	keypress	left	right	asynchronous
337.2499746833928	1.430160889402032	keypress	left	left	synchronous
340.69431189307943	3.444337209686637	keypress	left	right	asynchronous
341.8616845239885	1.1673726309090853	keypress	left	left	synchronous
344.94302615802735	3.0813416340388358	keypress	left	right	asynchronous
346.74534302111715	1.8023168630897999	keypress	left	left	synchronous
351.0883199782111	4.342976957093924	keypress	left	right	asynchronous
352.6278304201551	1.539510441944003	keypress	left	left	synchronous
353.7948809391819	1.167050519026816	keypress	left	right	asynchronous
354.9629571232945	1.1680761841125786	keypress	left	left	synchronous
357.6669631754048	2.704006052110344	keypress	left	right	asynchronous
359.1007548449561	1.4337916695512831	keypress	left	left	synchronous
361.01743875909597	1.9166839141398668	keypress	left	right	asynchronous
363.4552112403326	2.437772481236607	keypress	left	left	synchronous
367.69427367439494	4.239062434062362	keypress	left	right	asynchronous
368.7068117992021	1.012538124807179	keypress	left	left	synchronous
374.694960386958	5.988148587755859	keypress	left	right	asynchronous
379.9971421184018	5.302181731443852	keypress	left	left	synchronous
382.0123090483248	2.015166929922998	keypress	left	right	asynchronous
382.5445664022118	0.5322573538869619	keypress	left	left	synchronous
383.7655740752816	1.2210076730698347	keypress	left	right	asynchronous
385.4650394222699	1.6994653469882905	keypress	left	left	synchronous
387.6400923850015	2.17505296273157	keypress	left	right	asynchronous
389.97094726236537	2.3308548773638904	keypress	left	left	synchronous
393.159728824161	3.188781561795622	keypress	left	right	asynchronous
396.07547609414905	2.91574726998806	keypress	left	left	synchronous
398.6173307034187	2.541854609269649	keypress	left	right	asynchronous
400.3663503290154	1.749019625596702	keypress	left	left	synchronous
403.9736458971165	3.607295568101108	keypress	left	right	asynchronous
406.46082453010604	2.487178632989526	keypress	left	left	synchronous
410.87134889140725	4.4105243613012135	keypress	left	right	asynchronous
415.1161473323591	4.244798440951854	keypress	left	left	synchronous
419.94112602528185	4.824978692922741	keypress	left	right	asynchronous
421.68836921127513	1.747243185993284	keypress	left	left	synchronous
422.27305123908445	0.5846820278093219	keypress	left	right	asynchronous
423.6499365903437	1.3768853512592614	keypress	left	left	synchronous
424.9789598630741	1.32902327273041	keypress	left	right	asynchronous
426.57050378108397	1.5915439180098474	keypress	left	left	synchronous
429.5477065620944	2.977202781010419	keypress	left	right	asynchronous
431.0858705439605	1.5381639818660915	keypress	left	left	synchronous
434.3235626122914	3.2376920683309436	keypress	left	right	asynchronous
435.705332337413	1.3817697251215577	keypress	left	left	synchronous
439.58128247922286	3.8759501418098807	keypress	left	right	asynchronous
441.86805139295757	2.2867689137347043	keypress	left	left	synchronous
443.35222564730793	1.4841742543503642	keypress	left	right	asynchronous
444.9494485780597	1.597222930751741	keypress	left	left	synchronous
447.28924975637347	2.3398011783137918	keypress	left	right	asynchronous
449.30562261724845	2.0163728608749807	keypress	left	left	synchronous
451.3208478833549	2.0152252661064267	keypress	left	right	asynchronous
452.7533174841665	1.4324696008116007	keypress	left	left	synchronous
457.1070673139766	4.353749829810113	keypress	left	right	asynchronous
459.3909241021611	2.283856788184494	keypress	left	left	synchronous
461.99300031829625	2.602076216135174	keypress	left	right	asynchronous
464.16772137535736	2.174721057061106	keypress	left	left	synchronous
466.0814087311737	1.9136873558163643	keypress	left	right	asynchronous
468.31117595313117	2.229767221957445	keypress	left	left	synchronous
469.6913661332801	1.3801901801489294	keypress	left	right	asynchronous
470.913073732052	1.2217075987719	keypress	left	left	synchronous
472.34635892603546	1.4332851939834654	keypress	left	right	asynchronous
474.20902456808835	1.8626656420528889	keypress	left	left	synchronous
478.18770298035815	3.978678412269801	keypress	left	right	asynchronous
481.1576378410682	2.9699348607100546	keypress	left	left	synchronous
485.24443357111886	4.086795730050653	keypress	left	right	asynchronous
487.8426807462238	2.598247175104916	keypress	left	left	synchronous
489.91339437430725	2.0707136280834675	keypress	left	right	asynchronous
492.24657932017	2.3331849458627403	keypress	left	left	synchronous
494.5838468600996	2.3372675399295986	keypress	left	right	asynchronous
496.1177553413436	1.5339084812439978	keypress	left	left	synchronous
502.68793825339526	6.570182912051678	keypress	left	right	asynchronous
505.4971011853777	2.809162931982428	keypress	left	left	synchronous
506.9821036462672	1.4850024608895183	keypress	left	right	asynchronous
511.80542304040864	4.823319394141436	keypress	left	left	synchronous
512.6033218409866	0.7978988005779684	keypress	left	right	asynchronous
514.4070206102915	1.8036987693049014	keypress	left	left	synchronous
516.4744492731988	2.067428662907332	keypress	left	right	asynchronous
521.5650427271612	5.090593453962356	keypress	left	left	synchronous
523.9936795653775	2.4286368382163346	keypress	left	right	asynchronous
530.1960994931869	6.2024199278093874	keypress	left	left	synchronous
534.1238909494132	3.9277914562262595	keypress	left	right	asynchronous
535.6644462561235	1.5405553067103028	keypress	left	left	synchronous
538.053294012323	2.3888477561995387	keypress	left	right	asynchronous
540.815728281159	2.762434268835932	keypress	left	left	synchronous
543.3124675252475	2.4967392440885305	keypress	left	right	asynchronous
544.268529233057	0.9560617078095675	keypress	left	left	synchronous
545.7044031703845	1.4358739373274148	keypress	left	right	asynchronous
547.7755798329599	2.0711766625754535	keypress	left	left	synchronous
549.1564002013765	1.3808203684166074	keypress	left	right	asynchronous
551.8659938252531	2.7095936238765717	keypress	left	left	synchronous
554.3555762791075	2.489582453854382	keypress	left	right	asynchronous
555.8896212494001	1.534044970292598	keypress	left	left	synchronous
558.0101180891506	2.120496839750558	keypress	left	right	asynchronous
559.6017507603392	1.591632671188563	keypress	left	left	synchronous
562.0404816102237	2.4387308498844504	keypress	left	right	asynchronous
563.7389049129561	1.698423302732408	keypress	left	left	synchronous
567.9330812403932	4.194176327437162	keypress	left	right	asynchronous
571.8561456142925	3.9230643738992512	keypress	left	left	synchronous
572.7594599742442	0.9033143599517643	keypress	left	right	asynchronous
578.1736728660762	5.414212891831994	keypress	left	left	synchronous
582.7368758199736	4.563202953897417	keypress	left	right	asynchronous
585.0181245431304	2.28124872315675	keypress	left	left	synchronous
588.2587204561569	3.240595913026482	keypress	left	right	asynchronous
590.0073965094052	1.7486760532483459	keypress	left	left	synchronous
592.1877347421832	2.1803382327780128	keypress	left	right	asynchronous
593.6718184920028	1.484083749819547	keypress	left	left	synchronous
595.370484426152	1.6986659341491759	keypress	left	right	asynchronous
597.6484319232404	2.277947497088462	keypress	left	left	synchronous
598.9221207583323	1.273688835091889	keypress	left	right	asynchronous
599.9850186463445	n/a	keypress	left	left	synchronous
600.0371275302023	n/a	end_rivalry	left	n/a	n/a
