onset	duration	trial	sync_side	key	dominant
0.0	n/a	start_rivalry	left	n/a	n/a
6.425921005196869	n/a	keypress	left	right	asynchronous
9.50147059513256	3.07554958993569	keypress	left	left	synchronous
15.436228632926941	5.934758037794381	keypress	left	right	asynchronous
23.97628175886348	8.540053125936538	keypress	left	left	synchronous
27.045554778072983	3.069273019209504	keypress	left	right	asynchronous
27.943585903849453	0.8980311257764697	keypress	left	left	synchronous
30.806334579829127	2.862748675979674	keypress	left	right	asynchronous
35.15622829506174	4.349893715232611	keypress	left	left	synchronous
39.253253569826484	4.097025274764746	keypress	left	right	asynchronous
48.53937541600317	9.286121846176684	keypress	left	left	synchronous
51.77891646884382	3.23954105284065	keypress	left	right	asynchronous
56.029879643116146	4.250963174272329	keypress	left	left	synchronous
57.57061936985701	1.540739726740867	keypress	left	right	asynchronous
59.90630645491183	2.335687085054815	keypress	left	left	synchronous
63.08265898888931	3.1763525339774787	keypress	left	right	asynchronous
79.01840376202017	15.935744773130864	keypress	left	left	synchronous
86.59930880693719	7.580905044917017	keypress	left	right	asynchronous
89.35877709183842	2.7594682849012315	keypress	left	left	synchronous
94.57102744281292	5.2122503509745	keypress	left	right	asynchronous
96.96405486296862	2.393027420155704	keypress	left	left	synchronous
99.5627842801623	2.598729417193681	keypress	left	right	asynchronous
111.71312032174319	12.150336041580886	keypress	left	left	synchronous
113.99068602407351	2.277565702330321	keypress	left	right	asynchronous
118.49883552920073	4.508149505127221	keypress	left	left	synchronous
119.81984128803015	1.3210057588294148	keypress	left	right	asynchronous
124.06100265774876	4.241161369718611	keypress	left	left	synchronous
126.76486510317773	2.7038624454289675	keypress	left	right	asynchronous
129.6310241878964	2.8661590847186744	keypress	left	left	synchronous
131.4316545939073	1.800630406010896	keypress	left	right	asynchronous
134.98808737983927	3.5564327859319746	keypress	left	left	synchronous
138.22194246388972	3.2338550840504467	keypress	left	right	asynchronous
141.19589048204944	2.9739480181597173	keypress	left	left	synchronous
142.41470512608066	1.2188146440312266	keypress	left	right	asynchronous
144.224093364086	1.80938823800534	keypress	left	left	synchronous
146.83114455780014	2.607051193714142	keypress	left	right	asynchronous
149.1117366719991	2.280592114198953	keypress	left	left	synchronous
151.29178951215	2.1800528401508927	keypress	left	right	asynchronous
152.93268018215895	1.6408906700089574	keypress	left	left	synchronous
156.06135155679658	3.1286713746376336	keypress	left	right	asynchronous
158.02243543695658	1.961083880160004	keypress	left	left	synchronous
159.29909961484373	1.2766641778871417	keypress	left	right	asynchronous
188.31496851798147	29.015868903137743	keypress	left	left	synchronous
189.96628742013127	1.6513189021497965	keypress	left	right	asynchronous
196.96376200811937	6.997474587988108	keypress	left	left	synchronous
198.93330771895126	1.9695457108318806	keypress	left	right	asynchronous
203.77403610385954	4.840728384908289	keypress	left	left	synchronous
205.1009134510532	1.3268773471936584	keypress	left	right	asynchronous
211.62015196774155	6.519238516688347	keypress	left	left	synchronous
213.83927587699145	2.2191239092499018	keypress	left	right	asynchronous
228.5270165889524	14.687740711960942	keypress	left	left	synchronous
230.9738230649382	2.4468064759857953	keypress	left	right	asynchronous
235.12231904407963	4.148495979141444	keypress	left	left	synchronous
236.66202697111294	1.5397079270333052	keypress	left	right	asynchronous
238.7367852688767	2.074758297763765	keypress	left	left	synchronous
240.4898148709908	1.7530296021141112	keypress	left	right	asynchronous
248.71081773005426	8.221002859063447	keypress	left	left	synchronous
251.20272178482264	2.4919040547683835	keypress	left	right	asynchronous
259.5921512711793	8.389429486356676	keypress	left	left	synchronous
261.2356767519377	1.6435254807583988	keypress	left	right	asynchronous
271.730719038751	10.49504228681326	keypress	left	left	synchronous
273.26755187800154	1.5368328392505646	keypress	left	right	asynchronous
275.2764427359216	2.0088908579200506	keypress	left	left	synchronous
276.07430705986917	0.7978643239475787	keypress	left	right	asynchronous
277.8795970128849	1.8052899530157447	keypress	left	left	synchronous
282.873797732871	4.994200719986111	keypress	left	right	asynchronous
285.47972168400884	2.605923951137811	keypress	left	left	synchronous
287.2297463398427	1.7500246558338404	keypress	left	right	asynchronous
289.5070207430981	2.277274403255433	keypress	left	left	synchronous
290.51526839099824	1.0082476479001343	keypress	left	right	asynchronous
291.78322147903964	1.267953088041395	keypress	left	left	synchronous
293.96063410304487	2.1774126240052283	keypress	left	right	asynchronous
295.39676930895075	1.4361352059058845	keypress	left	left	synchronous
295.9819947001524	0.5852253912016749	keypress	left	right	asynchronous
299.05759214796126	3.075597447808832	keypress	left	left	synchronous
300.33379559218884	1.2762034442275763	keypress	left	right	asynchronous
305.5350946919061	5.201299099717289	keypress	left	left	synchronous
308.44942798418924	2.9143332922831178	keypress	left	right	asynchronous
312.9627945749089	4.51336659071967	keypress	left	left	synchronous
315.1892075720243	2.2264129971154034	keypress	left	right	asynchronous
316.404127871152	1.214920299127698	keypress	left	left	synchronous
319.2211979548447	2.81707008369267	keypress	left	right	asynchronous
322.61660133488476	3.3954033800400794	keypress	left	left	synchronous
324.4683759189211	1.8517745840363204	keypress	left	right	asynchronous
326.58897765912116	2.1206017402000725	keypress	left	left	synchronous
332.37062236713246	5.781644708011299	keypress	left	right	asynchronous
335.55312741780654	3.182505050674081	keypress	left	left	synchronous
337.3539042319171	1.800776814110577	keypress	left	right	asynchronous
338.9472728911787	1.593368659261614	keypress	left	left	synchronous
340.2730786241591	1.3258057329803705	keypress	left	right	asynchronous
347.3394375150092	7.066358890850097	keypress	left	left	synchronous
349.146379719954	1.8069422049447894	keypress	left	right	asynchronous
349.72890233108774	0.5825226111337543	keypress	left	left	synchronous
353.65212727803737	3.923224946949631	keypress	left	right	asynchronous
367.0685252789408	13.416398000903428	keypress	left	left	synchronous
369.3484260221012	2.279900743160397	keypress	left	right	asynchronous
379.1546078068204	9.806181784719229	keypress	left	left	synchronous
382.5025811009109	3.3479732940904796	keypress	left	right	asynchronous
398.9405830837786	16.438001982867718	keypress	left	left	synchronous
401.49287816509604	2.5522950813174248	keypress	left	right	asynchronous
402.9236248298548	1.4307466647587717	keypress	left	left	synchronous
405.15303819580004	2.22941336594522	keypress	left	right	asynchronous
408.81458266684785	3.6615444710478187	keypress	left	left	synchronous
411.0980379921384	2.2834553252905607	keypress	left	right	asynchronous
413.4877849780023	2.3897469858638942	keypress	left	left	synchronous
415.55977181578055	2.0719868377782404	keypress	left	right	asynchronous
417.15462047513574	1.5948486593551934	keypress	left	left	synchronous
418.9055509250611	1.750930449925363	keypress	left	right	asynchronous
420.2887248089537	1.3831738838925958	keypress	left	left	synchronous
421.2446853830479	0.9559605740942061	keypress	left	right	asynchronous
423.15684871189296	1.912163328845054	keypress	left	left	synchronous
426.5003053857945	3.343456673901528	keypress	left	right	asynchronous
435.2018567910418	8.7015514052473	keypress	left	left	synchronous
438.9649160760455	3.763059285003692	keypress	left	right	asynchronous
441.7775177001022	2.812601624056697	keypress	left	left	synchronous
444.96163814887404	3.184120448771864	keypress	left	right	asynchronous
447.08030575793236	2.1186676090583205	keypress	left	left	synchronous
449.7323410268873	2.6520352689549327	keypress	left	right	asynchronous
455.7825205861591	6.050179559271783	keypress	left	left	synchronous
456.4709004559554	0.6883798697963357	keypress	left	right	asynchronous
464.0058336588554	7.5349332028999925	keypress	left	left	synchronous
466.8684676392004	2.862633980344981	keypress	left	right	asynchronous
477.44430998293683	10.57584234373644	keypress	left	left	synchronous
480.5216942951083	3.077384312171489	keypress	left	right	asynchronous
484.0206230171025	3.4989287219941616	keypress	left	left	synchronous
485.2403796617873	1.2197566446848214	keypress	left	right	asynchronous
486.56608540797606	1.3257057461887598	keypress	left	left	synchronous
487.52339728781953	0.9573118798434734	keypress	left	right	asynchronous
489.01055375812575	1.4871564703062177	keypress	left	left	synchronous
489.75849671894684	0.7479429608210921	keypress	left	right	asynchronous
493.62743548490107	3.8689387659542263	keypress	left	left	synchronous
497.55385904898867	3.9264235640875995	keypress	left	right	asynchronous
502.5463407211937	4.992481672205031	keypress	left	left	synchronous
505.40675207413733	2.860411352943629	keypress	left	right	asynchronous
508.64525822596624	3.238506151828915	keypress	left	left	synchronous
510.0295757171698	1.3843174912035465	keypress	left	right	asynchronous
511.93805458489805	1.9084788677282631	keypress	left	left	synchronous
516.5613356297836	4.623281044885516	keypress	left	right	asynchronous
517.0417330339551	0.48039740417152643	keypress	left	left	synchronous
518.8968154159375	1.8550823819823563	keypress	left	right	asynchronous
524.0928681497462	5.196052733808756	keypress	left	left	synchronous
526.3692994280718	2.2764312783256173	keypress	left	right	asynchronous
528.9132423121482	2.5439428840763867	keypress	left	left	synchronous
532.0890813469887	3.1758390348404646	keypress	left	right	asynchronous
541.4373148200102	9.348233473021537	keypress	left	left	synchronous
542.4445834420621	1.0072686220519245	keypress	left	right	asynchronous
545.3093397500925	2.864756308030337	keypress	left	left	synchronous
548.5984278777614	3.289088127668947	keypress	left	right	asynchronous
550.4040747857653	1.8056469080038369	keypress	left	left	synchronous
550.9859097050503	0.5818349192850292	keypress	left	right	asynchronous
551.8907816987485	0.9048719936981797	keypress	left	left	synchronous
554.5434346538968	2.652652955148369	keypress	left	right	asynchronous
559.5288998689502	4.985465215053409	keypress	left	left	synchronous
562.716359723825	3.18745985487476	keypress	left	right	asynchronous
566.8555701640435	4.139210440218449	keypress	left	left	synchronous
567.7562157050706	0.9006455410271883	keypress	left	right	asynchronous
568.7105534859002	0.954337780829519	keypress	left	left	synchronous
570.8871021559462	2.1765486700460315	keypress	left	right	asynchronous
581.4974815701135	10.610379414167255	keypress	left	left	synchronous
583.3102436461486	1.812762076035142	keypress	left	right	asynchronous
587.4472774169408	4.137033770792186	keypress	left	left	synchronous
590.0973710278049	2.6500936108641326	keypress	left	right	asynchronous
594.3334636418149	4.236092614009976	keypress	left	left	synchronous
599.0033188089728	n/a	keypress	left	right	asynchronous
600.0123368101195	n/a	end_rivalry	left	n/a	n/a
