onset	duration	trial	sync_side	key	dominant
0.0	n/a	start_rivalry	right	n/a	n/a
1.7563656140118837	n/a	keypress	right	right	synchronous
2.1266027009114623	0.37023708689957857	keypress	right	left	asynchronous
3.451588155236095	1.3249854543246329	keypress	right	right	synchronous
3.7196939438581467	0.2681057886220515	keypress	right	left	asynchronous
6.801740567199886	3.082046623341739	keypress	right	right	synchronous
7.34159742295742	0.5398568557575345	keypress	right	left	asynchronous
7.925680246204138	0.5840828232467175	keypress	right	right	synchronous
8.466717114206403	0.5410368680022657	keypress	right	left	asynchronous
8.791104643139988	0.3243875289335847	keypress	right	right	synchronous
10.756275925785303	1.965171282645315	keypress	right	left	asynchronous
11.499442934058607	0.7431670082733035	keypress	right	right	synchronous
13.567527363076806	2.0680844290181994	keypress	right	left	asynchronous
14.095239475835115	0.5277121127583086	keypress	right	right	synchronous
14.83799212006852	0.7427526442334056	keypress	right	left	asynchronous
16.058238078840077	1.2202459587715566	keypress	right	right	synchronous
16.701738972216845	0.6435008933767676	keypress	right	left	asynchronous
17.232905098237097	0.5311661260202527	keypress	right	right	synchronous
17.765703558921814	0.5327984606847167	keypress	right	left	asynchronous
18.190892273094505	0.4251887141726911	keypress	right	right	synchronous
18.6678359140642	0.47694364096969366	keypress	right	left	asynchronous
19.09289934905246	0.42506343498826027	keypress	right	right	synchronous
19.674605967942625	0.5817066188901663	keypress	right	left	asynchronous
20.207677226979285	0.5330712590366602	keypress	right	right	synchronous
21.742948157247156	1.5352709302678704	keypress	right	left	asynchronous
22.383092370815575	0.6401442135684192	keypress	right	right	synchronous
22.864870803896338	0.4817784330807626	keypress	right	left	asynchronous
23.39614021219313	0.5312694082967937	keypress	right	right	synchronous
23.872977416031063	0.47683720383793116	keypress	right	left	asynchronous
24.352470399811864	0.4794929837808013	keypress	right	right	synchronous
24.936169188003987	0.5836987881921232	keypress	right	left	asynchronous
26.263968754094094	1.327799566090107	keypress	right	right	synchronous
26.796274730935693	0.5323059768415987	keypress	right	left	asynchronous
27.488066455814987	0.6917917248792946	keypress	right	right	synchronous
28.176839066203684	0.6887726103886962	keypress	right	left	asynchronous
29.452385684940964	1.2755466187372804	keypress	right	right	synchronous
29.929508544970304	0.4771228600293398	keypress	right	left	asynchronous
30.513893372844905	0.5843848278746009	keypress	right	right	synchronous
30.9891327759251	0.4752394030801952	keypress	right	left	asynchronous
31.520749973133206	0.5316171972081065	keypress	right	right	synchronous
32.104835270904005	0.5840852977707982	keypress	right	left	asynchronous
32.63465842884034	0.5298231579363346	keypress	right	right	synchronous
33.32391415024176	0.6892557214014232	keypress	right	left	asynchronous
34.703723603859544	1.3798094536177814	keypress	right	right	synchronous
36.18811060581356	1.484387001954019	keypress	right	left	asynchronous
36.6130121848546	0.424901579041034	keypress	right	right	synchronous
37.249205083120614	0.6361928982660174	keypress	right	left	asynchronous
37.77963134413585	0.5304262610152364	keypress	right	right	synchronous
38.2592607550323	0.4796294108964503	keypress	right	left	asynchronous
38.84494920587167	0.5856884508393705	keypress	right	right	synchronous
39.2705161399208	0.4255669340491295	keypress	right	left	asynchronous
39.74790710909292	0.4773909691721201	keypress	right	right	synchronous
40.227071904111654	0.47916479501873255	keypress	right	left	asynchronous
40.7608316228725	0.533759718760848	keypress	right	right	synchronous
41.187167015857995	0.42633539298549294	keypress	right	left	asynchronous
41.66643372690305	0.4792667110450566	keypress	right	right	synchronous
42.145542073994875	0.4791083470918238	keypress	right	left	asynchronous
42.622137487865984	0.4765954138711095	keypress	right	right	synchronous
43.04563091415912	0.4234934262931347	keypress	right	left	asynchronous
43.525760986842215	0.48013007268309593	keypress	right	right	synchronous
44.004683188162744	0.478922201320529	keypress	right	left	asynchronous
44.48456811718643	0.47988492902368307	keypress	right	right	synchronous
45.12377580720931	0.6392076900228858	keypress	right	left	asynchronous
45.707309558056295	0.583533750846982	keypress	right	right	synchronous
47.08585417084396	1.378544612787664	keypress	right	left	asynchronous
47.56356163183227	0.47770746098831296	keypress	right	right	synchronous
48.09783624205738	0.5342746102251112	keypress	right	left	asynchronous
48.52305923588574	0.42522299382835627	keypress	right	right	synchronous
49.104597894940525	0.581538659054786	keypress	right	left	asynchronous
49.79475463088602	0.690156735945493	keypress	right	right	synchronous
50.431833832059056	0.6370792011730373	keypress	right	left	asynchronous
51.547046064864844	1.1152122328057885	keypress	right	right	synchronous
51.970716258045286	0.42367019318044186	keypress	right	left	asynchronous
52.450401578098536	0.4796853200532496	keypress	right	right	synchronous
52.92892947420478	0.47852789610624313	keypress	right	left	asynchronous
53.45770480623469	0.5287753320299089	keypress	right	right	synchronous
54.04107475280762	0.5833699465729296	keypress	right	left	asynchronous
54.466065138112754	0.42499038530513644	keypress	right	right	synchronous
54.943790523801	0.4777253856882453	keypress	right	left	asynchronous
55.58289455482736	0.6391040310263634	keypress	right	right	synchronous
56.22068853210658	0.637793977279216	keypress	right	left	asynchronous
57.279510052874684	1.058821520768106	keypress	right	right	synchronous
57.757736050058156	0.4782259971834719	keypress	right	left	asynchronous
58.50070471689105	0.7429686668328941	keypress	right	right	synchronous
58.873587530106306	0.37288281321525574	keypress	right	left	asynchronous
59.40733208693564	0.5337445568293333	keypress	right	right	synchronous
60.152082414831966	0.7447503278963268	keypress	right	left	asynchronous
61.264281960204244	1.1121995453722775	keypress	right	right	synchronous
61.79479939304292	0.5305174328386784	keypress	right	left	asynchronous
62.272790683899075	0.4779912908561528	keypress	right	right	synchronous
62.85873543005437	0.5859447461552918	keypress	right	left	asynchronous
63.49720010207966	0.6384646720252931	keypress	right	right	synchronous
63.86899780808017	0.3717977060005069	keypress	right	left	asynchronous
64.40120166912675	0.5322038610465825	keypress	right	right	synchronous
64.8804134959355	0.47921182680875063	keypress	right	left	asynchronous
65.5183643582277	0.6379508622922003	keypress	right	right	synchronous
66.8944637151435	1.3760993569158018	keypress	right	left	asynchronous
67.37486407300457	0.4804003578610718	keypress	right	right	synchronous
68.48702361993492	1.112159546930343	keypress	right	left	asynchronous
69.07050903886557	0.5834854189306498	keypress	right	right	synchronous
69.65756491292268	0.5870558740571141	keypress	right	left	asynchronous
70.19786991598085	0.5403050030581653	keypress	right	right	synchronous
71.31412190385163	1.1162519878707826	keypress	right	left	asynchronous
71.84764820989221	0.533526306040585	keypress	right	right	synchronous
72.27398287598044	0.42633466608822346	keypress	right	left	asynchronous
72.80439148191363	0.5304086059331894	keypress	right	right	synchronous
73.22759109688923	0.42319961497560143	keypress	right	left	asynchronous
73.81258309679106	0.5849919999018312	keypress	right	right	synchronous
74.34403505688533	0.5314519600942731	keypress	right	left	asynchronous
74.87690674094483	0.5328716840595007	keypress	right	right	synchronous
75.35334694618359	0.4764402052387595	keypress	right	left	asynchronous
75.83307663490996	0.47972968872636557	keypress	right	right	synchronous
77.42810191586614	1.595025280956179	keypress	right	left	asynchronous
77.95919827418402	0.5310963583178818	keypress	right	right	synchronous
78.38415437890217	0.4249561047181487	keypress	right	left	asynchronous
78.86115019209683	0.47699581319466233	keypress	right	right	synchronous
79.23283636802807	0.3716861759312451	keypress	right	left	asynchronous
79.97485036216676	0.7420139941386878	keypress	right	right	synchronous
81.13980470085517	1.1649543386884034	keypress	right	left	asynchronous
81.7756217662245	0.6358170653693378	keypress	right	right	synchronous
82.83759078290313	1.0619690166786313	keypress	right	left	asynchronous
83.4744328870438	0.6368421041406691	keypress	right	right	synchronous
84.00408392911777	0.5296510420739651	keypress	right	left	asynchronous
85.0137768262066	1.0096928970888257	keypress	right	right	synchronous
86.55058637587354	1.5368095496669412	keypress	right	left	asynchronous
89.73690836224705	3.186321986373514	keypress	right	right	synchronous
90.16231382917613	0.4254054669290781	keypress	right	left	asynchronous
90.80009948881343	0.6377856596373022	keypress	right	right	synchronous
93.13257020292804	2.3324707141146064	keypress	right	left	asynchronous
93.76918788719922	0.6366176842711866	keypress	right	right	synchronous
94.30105044599622	0.5318625587970018	keypress	right	left	asynchronous
94.67318403813988	0.3721335921436548	keypress	right	right	synchronous
95.09976063715294	0.42657659901306033	keypress	right	left	asynchronous
95.5243570888415	0.42459645168855786	keypress	right	right	synchronous
96.10533466516063	0.5809775763191283	keypress	right	left	asynchronous
96.47781529510394	0.3724806299433112	keypress	right	right	synchronous
97.32890482293442	0.8510895278304815	keypress	right	left	asynchronous
97.9118113880977	0.5829065651632845	keypress	right	right	synchronous
99.1309570260346	1.2191456379368901	keypress	right	left	asynchronous
99.60787594085559	0.4769189148209989	keypress	right	right	synchronous
100.08875640621409	0.4808804653584957	keypress	right	left	asynchronous
100.51351515995339	0.4247587537392974	keypress	right	right	synchronous
101.89224654389545	1.3787313839420676	keypress	right	left	asynchronous
102.26381434407085	0.3715678001753986	keypress	right	right	synchronous
102.95635938411579	0.6925450400449336	keypress	right	left	asynchronous
103.43512104079127	0.47876165667548776	keypress	right	right	synchronous
104.22970412485301	0.7945830840617418	keypress	right	left	asynchronous
107.04281196789816	2.8131078430451453	keypress	right	right	synchronous
107.36183939687908	0.31902742898091674	keypress	right	left	asynchronous
107.839030160103	0.4771907632239163	keypress	right	right	synchronous
109.16598451603204	1.3269543559290469	keypress	right	left	asynchronous
110.1205000472255	0.954515531193465	keypress	right	right	synchronous
110.54648535512388	0.4259853078983724	keypress	right	left	asynchronous
112.0346049470827	1.4881195919588208	keypress	right	right	synchronous
112.67087819101289	0.6362732439301908	keypress	right	left	asynchronous
114.68780120788142	2.0169230168685317	keypress	right	right	synchronous
115.11325099086389	0.4254497829824686	keypress	right	left	asynchronous
115.59107333282009	0.4778223419561982	keypress	right	right	synchronous
116.22829558281228	0.6372222499921918	keypress	right	left	asynchronous
116.7595337620005	0.5312381791882217	keypress	right	right	synchronous
117.3451844858937	0.5856507238931954	keypress	right	left	asynchronous
117.82307380996644	0.4778893240727484	keypress	right	right	synchronous
118.4073277330026	0.5842539230361581	keypress	right	left	asynchronous
118.93747010780498	0.5301423748023808	keypress	right	right	synchronous
119.30826471792534	0.3707946101203561	keypress	right	left	asynchronous
124.08341543981805	4.7751507218927145	keypress	right	right	synchronous
124.50979914003983	0.42638370022177696	keypress	right	left	asynchronous
125.20158449187875	0.6917853518389165	keypress	right	right	synchronous
126.58311245311052	1.3815279612317681	keypress	right	left	asynchronous
128.49170090584084	1.9085884527303278	keypress	right	right	synchronous
129.55137969879434	1.0596787929534912	keypress	right	left	asynchronous
129.87048604013398	0.31910634133964777	keypress	right	right	synchronous
130.2434107568115	0.3729247166775167	keypress	right	left	asynchronous
130.93571499921381	0.6923042424023151	keypress	right	right	synchronous
131.99628353491426	1.0605685357004404	keypress	right	left	asynchronous
132.36596936779097	0.3696858328767121	keypress	right	right	synchronous
132.8961039450951	0.5301345773041248	keypress	right	left	asynchronous
133.47850024793297	0.5823963028378785	keypress	right	right	synchronous
134.01183843286708	0.5333381849341094	keypress	right	left	asynchronous
134.4390435810201	0.42720514815300703	keypress	right	right	synchronous
134.9186567212455	0.47961314022541046	keypress	right	left	asynchronous
135.50209490116686	0.5834381799213588	keypress	right	right	synchronous
137.09323897212744	1.5911440709605813	keypress	right	left	asynchronous
138.0517160478048	0.9584770756773651	keypress	right	right	synchronous
138.68998776981607	0.6382717220112681	keypress	right	left	asynchronous
142.19666905608028	3.506681286264211	keypress	right	right	synchronous
142.7268851469271	0.5302160908468068	keypress	right	left	asynchronous
144.84850983694196	2.121624690014869	keypress	right	right	synchronous
145.16901178192347	0.3205019449815154	keypress	right	left	asynchronous
146.17735015507787	1.0083383731544018	keypress	right	right	synchronous
146.92298693116754	0.7456367760896683	keypress	right	left	asynchronous
148.25325840106234	1.3302714698947966	keypress	right	right	synchronous
148.78594610607252	0.5326877050101757	keypress	right	left	asynchronous
149.05019306391478	0.2642469578422606	keypress	right	right	synchronous
149.52707348112017	0.4768804172053933	keypress	right	left	asynchronous
150.05644358089194	0.5293700997717679	keypress	right	right	synchronous
150.84928760211915	0.7928440212272108	keypress	right	left	asynchronous
151.22212630184367	0.3728386997245252	keypress	right	right	synchronous
152.60489098494872	1.3827646831050515	keypress	right	left	asynchronous
153.24213886400685	0.6372478790581226	keypress	right	right	synchronous
154.67444999795407	1.4323111339472234	keypress	right	left	asynchronous
155.0469363401644	0.3724863422103226	keypress	right	right	synchronous
155.57718025613576	0.5302439159713686	keypress	right	left	asynchronous
156.47934712981805	0.9021668736822903	keypress	right	right	synchronous
157.0627582599409	0.5834111301228404	keypress	right	left	asynchronous
158.54683968098834	1.4840814210474491	keypress	right	right	synchronous
158.97373834019527	0.4268986592069268	keypress	right	left	asynchronous
159.5604364401661	0.5866980999708176	keypress	right	right	synchronous
159.9318406372331	0.3714041970670223	keypress	right	left	asynchronous
160.35586611321196	0.4240254759788513	keypress	right	right	synchronous
160.72880382323638	0.37293771002441645	keypress	right	left	asynchronous
161.15384062100202	0.4250367977656424	keypress	right	right	synchronous
162.74762717913836	1.593786558136344	keypress	right	left	asynchronous
163.11833167308941	0.3707044939510524	keypress	right	right	synchronous
163.49029383715242	0.37196216406300664	keypress	right	left	asynchronous
164.01916452590376	0.5288706887513399	keypress	right	right	synchronous
164.39100011996925	0.3718355940654874	keypress	right	left	asynchronous
164.87030614493415	0.4793060249648988	keypress	right	right	synchronous
165.66765839094296	0.7973522460088134	keypress	right	left	asynchronous
166.67566344607621	1.0080050551332533	keypress	right	right	synchronous
168.26796268904582	1.5922992429696023	keypress	right	left	asynchronous
168.90623308578506	0.6382703967392445	keypress	right	right	synchronous
171.02630403311923	2.1200709473341703	keypress	right	left	asynchronous
171.29315775912255	0.266853726003319	keypress	right	right	synchronous
171.8231315058656	0.5299737467430532	keypress	right	left	asynchronous
173.62767711980268	1.80454561393708	keypress	right	right	synchronous
174.68811847595498	1.060441356152296	keypress	right	left	asynchronous
175.1653876118362	0.47726913588121533	keypress	right	right	synchronous
176.06569732679054	0.9003097149543464	keypress	right	left	asynchronous
176.4914238122292	0.4257264854386449	keypress	right	right	synchronous
178.13480981905013	1.643386006820947	keypress	right	left	asynchronous
178.34889998007566	0.21409016102552414	keypress	right	right	synchronous
179.62086589680985	1.2719659167341888	keypress	right	left	asynchronous
180.1502403221093	0.5293744252994657	keypress	right	right	synchronous
180.84011173294857	0.6898714108392596	keypress	right	left	asynchronous
184.34429548494518	3.5041837519966066	keypress	right	right	synchronous
184.76894955709577	0.42465407215058804	keypress	right	left	asynchronous
185.35207025986165	0.583120702765882	keypress	right	right	synchronous
185.9368529478088	0.584782687947154	keypress	right	left	asynchronous
186.41462633898482	0.47777339117601514	keypress	right	right	synchronous
187.1571079310961	0.7424815921112895	keypress	right	left	asynchronous
187.58103108080104	0.42392314970493317	keypress	right	right	synchronous
188.06249839998782	0.4814673191867769	keypress	right	left	asynchronous
188.5428844569251	0.4803860569372773	keypress	right	right	synchronous
190.02872291998938	1.4858384630642831	keypress	right	left	asynchronous
192.25729463389143	2.228571713902056	keypress	right	right	synchronous
193.63762720115483	1.3803325672633946	keypress	right	left	asynchronous
194.11573000485078	0.47810280369594693	keypress	right	right	synchronous
194.54106442909688	0.42533442424610257	keypress	right	left	asynchronous
194.7537932829	0.212728853803128	keypress	right	right	synchronous
195.34016745118424	0.5863741682842374	keypress	right	left	asynchronous
197.72864000312984	2.388472551945597	keypress	right	right	synchronous
198.36517551122233	0.6365355080924928	keypress	right	left	asynchronous
199.37261206191033	1.0074365506879985	keypress	right	right	synchronous
200.27143656508997	0.8988245031796396	keypress	right	left	asynchronous
203.87833736091852	3.606900795828551	keypress	right	right	synchronous
205.10322863981128	1.2248912788927555	keypress	right	left	asynchronous
208.60859232814983	3.505363688338548	keypress	right	right	synchronous
208.98123591206968	0.37264358391985297	keypress	right	left	asynchronous
209.45772402593866	0.4764881138689816	keypress	right	right	synchronous
209.93356937915087	0.47584535321220756	keypress	right	left	asynchronous
210.94215826224536	1.0085888830944896	keypress	right	right	synchronous
211.2076028608717	0.2654445986263454	keypress	right	left	asynchronous
211.6873220759444	0.47971921507269144	keypress	right	right	synchronous
212.16531658824533	0.47799451230093837	keypress	right	left	asynchronous
214.07836140599102	1.9130448177456856	keypress	right	right	synchronous
214.87319062883034	0.7948292228393257	keypress	right	left	asynchronous
216.19750327896327	1.3243126501329243	keypress	right	right	synchronous
217.52569863712415	1.3281953581608832	keypress	right	left	asynchronous
218.95813974179327	1.4324411046691239	keypress	right	right	synchronous
219.539899607189	0.5817598653957248	keypress	right	left	asynchronous
220.5458005531691	1.0059009459801018	keypress	right	right	synchronous
221.76675733411685	1.2209567809477448	keypress	right	left	asynchronous
222.24508420284837	0.4783268687315285	keypress	right	right	synchronous
223.14569078106433	0.9006065782159567	keypress	right	left	asynchronous
225.31729958113283	2.1716088000684977	keypress	right	right	synchronous
226.5916195991449	1.2743200180120766	keypress	right	left	asynchronous
227.49452866520733	0.9029090660624206	keypress	right	right	synchronous
228.5556513350457	1.061122669838369	keypress	right	left	asynchronous
229.5095840068534	0.9539326718077064	keypress	right	right	synchronous
231.89323484385386	2.3836508370004594	keypress	right	left	asynchronous
234.17675678618252	2.2835219423286617	keypress	right	right	synchronous
234.91900255298242	0.742245766799897	keypress	right	left	asynchronous
236.40328400721774	1.4842814542353153	keypress	right	right	synchronous
236.93340931786224	0.5301253106445074	keypress	right	left	asynchronous
238.3123470870778	1.378937769215554	keypress	right	right	synchronous
239.16231920011342	0.8499721130356193	keypress	right	left	asynchronous
240.01380755193532	0.8514883518218994	keypress	right	right	synchronous
241.3912687562406	1.3774612043052912	keypress	right	left	asynchronous
242.13347217906266	0.7422034228220582	keypress	right	right	synchronous
242.61288702394813	0.4794148448854685	keypress	right	left	asynchronous
244.04477390181273	1.4318868778645992	keypress	right	right	synchronous
244.47040311293676	0.42562921112403274	keypress	right	left	asynchronous
245.63748510507867	1.1670819921419024	keypress	right	right	synchronous
246.06404612399638	0.4265610189177096	keypress	right	left	asynchronous
246.59560492122546	0.5315587972290814	keypress	right	right	synchronous
247.9761801371351	1.38057521590963	keypress	right	left	asynchronous
248.4010751559399	0.4248950188048184	keypress	right	right	synchronous
251.10757741797715	2.7065022620372474	keypress	right	left	asynchronous
252.06223227921873	0.9546548612415791	keypress	right	right	synchronous
252.8058812590316	0.7436489798128605	keypress	right	left	asynchronous
254.1843772949651	1.3784960359334946	keypress	right	right	synchronous
254.6094770929776	0.42509979801252484	keypress	right	left	asynchronous
255.1914397329092	0.5819626399315894	keypress	right	right	synchronous
256.57312391186133	1.3816841789521277	keypress	right	left	asynchronous
257.8996718558483	1.3265479439869523	keypress	right	right	synchronous
258.22091767191887	0.32124581607058644	keypress	right	left	asynchronous
259.2792007778771	1.0582831059582531	keypress	right	right	synchronous
259.9697246882133	0.6905239103361964	keypress	right	left	asynchronous
260.4991954751313	0.5294707869179547	keypress	right	right	synchronous
261.18727142503485	0.6880759499035776	keypress	right	left	asynchronous
261.8246610928327	0.6373896677978337	keypress	right	right	synchronous
264.48291462799534	2.6582535351626575	keypress	right	left	asynchronous
265.228260606993	0.7453459789976478	keypress	right	right	synchronous
265.917358645238	0.6890980382449925	keypress	right	left	asynchronous
266.9304322069511	1.0130735617130995	keypress	right	right	synchronous
267.6730166259222	0.7425844189710915	keypress	right	left	asynchronous
268.31109892297536	0.6380822970531881	keypress	right	right	synchronous
268.89458279218525	0.5834838692098856	keypress	right	left	asynchronous
270.80912443902344	1.9145416468381882	keypress	right	right	synchronous
271.23364251712337	0.42451807809993625	keypress	right	left	asynchronous
273.5654914099723	2.3318488928489387	keypress	right	right	synchronous
274.04164772015065	0.4761563101783395	keypress	right	left	asynchronous
274.5736283408478	0.5319806206971407	keypress	right	right	synchronous
275.1578477160074	0.5842193751595914	keypress	right	left	asynchronous
275.955093042925	0.7972453269176185	keypress	right	right	synchronous
276.80661105783656	0.8515180149115622	keypress	right	left	asynchronous
277.23095552809536	0.4243444702588022	keypress	right	right	synchronous
278.8714198949747	1.6404643668793142	keypress	right	left	asynchronous
280.4087796388194	1.5373597438447177	keypress	right	right	synchronous
280.7828361662105	0.3740565273910761	keypress	right	left	asynchronous
283.33258185721934	2.549745691008866	keypress	right	right	synchronous
283.4408509740606	0.10826911684125662	keypress	right	left	asynchronous
285.1944683259353	1.7536173518747091	keypress	right	right	synchronous
286.41609089123085	1.2216225652955472	keypress	right	left	asynchronous
286.83868339983746	0.4225925086066127	keypress	right	right	synchronous
287.21193911507726	0.37325571523979306	keypress	right	left	asynchronous
288.2734259250574	1.0614868099801242	keypress	right	right	synchronous
288.9092439948581	0.6358180698007345	keypress	right	left	asynchronous
289.3881020429544	0.47885804809629917	keypress	right	right	synchronous
289.8663326888345	0.4782306458801031	keypress	right	left	asynchronous
290.55876600090414	0.6924333120696247	keypress	right	right	synchronous
291.62017009593546	1.061404095031321	keypress	right	left	asynchronous
292.3105423920788	0.6903722961433232	keypress	right	right	synchronous
292.84108730312437	0.5305449110455811	keypress	right	left	asynchronous
294.00813761586323	1.1670503127388656	keypress	right	right	synchronous
295.44235703209415	1.434219416230917	keypress	right	left	asynchronous
297.40142981521785	1.9590727831237018	keypress	right	right	synchronous
298.0917971711606	0.6903673559427261	keypress	right	left	asynchronous
299.3159828581847	1.2241856870241463	keypress	right	right	synchronous
300.4834406711161	1.1674578129313886	keypress	right	left	asynchronous
300.8540485869162	0.3706079158000648	keypress	right	right	synchronous
301.2786243390292	0.42457575211301446	keypress	right	left	asynchronous
302.34142050985247	1.062796170823276	keypress	right	right	synchronous
303.0825585871935	0.7411380773410201	keypress	right	left	asynchronous
307.2802030178718	4.197644430678338	keypress	right	right	synchronous
308.29184652119875	1.0116435033269227	keypress	right	left	asynchronous
308.6105176950805	0.3186711738817394	keypress	right	right	synchronous
309.5151594541967	0.9046417591162026	keypress	right	left	asynchronous
311.63345420593396	2.118294751737267	keypress	right	right	synchronous
312.1116547952406	0.47820058930665255	keypress	right	left	asynchronous
312.6955354101956	0.5838806149549782	keypress	right	right	synchronous
315.88078191224486	3.1852465020492673	keypress	right	left	asynchronous
317.2061967710033	1.3254148587584496	keypress	right	right	synchronous
318.6359654921107	1.4297687211073935	keypress	right	left	asynchronous
319.90917799808085	1.2732125059701502	keypress	right	right	synchronous
320.65323643386364	0.7440584357827902	keypress	right	left	asynchronous
320.9713217429817	0.31808530911803246	keypress	right	right	synchronous
321.6076533701271	0.6363316271454096	keypress	right	left	asynchronous
323.0391287440434	1.431475373916328	keypress	right	right	synchronous
324.52411520993337	1.4849864658899605	keypress	right	left	asynchronous
325.0540127158165	0.5298975058831275	keypress	right	right	synchronous
327.3876520697959	2.333639353979379	keypress	right	left	asynchronous
328.18492232309654	0.7972702533006668	keypress	right	right	synchronous
329.14414704917	0.9592247260734439	keypress	right	left	asynchronous
331.0531257088296	1.908978659659624	keypress	right	right	synchronous
333.38645499013364	2.3333292813040316	keypress	right	left	asynchronous
334.55531274387613	1.1688577537424862	keypress	right	right	synchronous
335.3495510518551	0.7942383079789579	keypress	right	left	asynchronous
336.3555627320893	1.0060116802342236	keypress	right	right	synchronous
337.4151712968014	1.0596085647121072	keypress	right	left	asynchronous
338.317871728912	0.9027004321105778	keypress	right	right	synchronous
339.3263781121932	1.0085063832812011	keypress	right	left	asynchronous
340.2266982072033	0.9003200950101018	keypress	right	right	synchronous
342.0869974922389	1.8602992850355804	keypress	right	left	asynchronous
343.25795762008056	1.1709601278416812	keypress	right	right	synchronous
344.0031715850346	0.7452139649540186	keypress	right	left	asynchronous
345.4940236900002	1.4908521049655974	keypress	right	right	synchronous
346.66105692693964	1.16703323693946	keypress	right	left	asynchronous
348.3595056962222	1.6984487692825496	keypress	right	right	synchronous
350.0075150039047	1.6480093076825142	keypress	right	left	asynchronous
351.22984544513747	1.2223304412327707	keypress	right	right	synchronous
353.03407819522545	1.8042327500879765	keypress	right	left	asynchronous
354.3061233581975	1.2720451629720628	keypress	right	right	synchronous
354.83603681391105	0.5299134557135403	keypress	right	left	asynchronous
355.7905708188191	0.9545340049080551	keypress	right	right	synchronous
356.429529893212	0.6389590743929148	keypress	right	left	asynchronous
357.755688295234	1.3261584020219743	keypress	right	right	synchronous
359.87948052817956	2.1237922329455614	keypress	right	left	asynchronous
360.94360905187204	1.0641285236924887	keypress	right	right	synchronous
361.52790593681857	0.5842968849465251	keypress	right	left	asynchronous
362.9072631439194	1.3793572071008384	keypress	right	right	synchronous
364.2319277818315	1.3246646379120648	keypress	right	left	asynchronous
365.822493547108	1.5905657652765512	keypress	right	right	synchronous
366.77789147524163	0.9553979281336069	keypress	right	left	asynchronous
368.7399721839465	1.9620807087048888	keypress	right	right	synchronous
370.0088980188593	1.2689258349128067	keypress	right	left	asynchronous
371.8145655100234	1.8056674911640584	keypress	right	right	synchronous
372.3470210740343	0.5324555640108883	keypress	right	left	asynchronous
373.307165578939	0.960144504904747	keypress	right	right	synchronous
374.2605669950135	0.9534014160744846	keypress	right	left	asynchronous
375.4263955759816	1.165828580968082	keypress	right	right	synchronous
377.97405413212255	2.5476585561409593	keypress	right	left	asynchronous
379.4071414167993	1.4330872846767306	keypress	right	right	synchronous
380.41042775986716	1.0032863430678844	keypress	right	left	asynchronous
382.37916940124705	1.9687416413798928	keypress	right	right	synchronous
385.45772852096707	3.078559119720012	keypress	right	left	asynchronous
386.88795347791165	1.4302249569445848	keypress	right	right	synchronous
388.2131736241281	1.3252201462164521	keypress	right	left	asynchronous
389.42967368196696	1.2165000578388572	keypress	right	right	synchronous
390.70268797222525	1.2730142902582884	keypress	right	left	asynchronous
391.70799323916435	1.0053052669391036	keypress	right	right	synchronous
393.0877294749953	1.3797362358309329	keypress	right	left	asynchronous
394.3650561179966	1.2773266430012882	keypress	right	right	synchronous
395.6949714901857	1.3299153721891344	keypress	right	left	asynchronous
397.23099943622947	1.5360279460437596	keypress	right	right	synchronous
398.50684279203415	1.2758433558046818	keypress	right	left	asynchronous
399.8853125697933	1.3784697777591646	keypress	right	right	synchronous
401.52996135223657	1.6446487824432552	keypress	right	left	asynchronous
403.1236757868901	1.5937144346535206	keypress	right	right	synchronous
404.50248304381967	1.3788072569295764	keypress	right	left	asynchronous
405.5652166339569	1.0627335901372135	keypress	right	right	synchronous
406.4154874482192	0.8502708142623305	keypress	right	left	asynchronous
408.4916746672243	2.076187219005078	keypress	right	right	synchronous
409.7653252161108	1.2736505488865077	keypress	right	left	asynchronous
411.1997936279513	1.4344684118404984	keypress	right	right	synchronous
415.17797991493717	3.978186286985874	keypress	right	left	asynchronous
417.9949718611315	2.816991946194321	keypress	right	right	synchronous
420.00705871218815	2.012086851056665	keypress	right	left	asynchronous
420.74937700713053	0.742318294942379	keypress	right	right	synchronous
422.65961785195395	1.91024084482342	keypress	right	left	asynchronous
423.2446058331989	0.5849879812449217	keypress	right	right	synchronous
424.62755507417023	1.3829492409713566	keypress	right	left	asynchronous
425.7970697740093	1.1695146998390555	keypress	right	right	synchronous
427.1243722732179	1.3273024992085993	keypress	right	left	asynchronous
428.4526588660665	1.328286592848599	keypress	right	right	synchronous
429.19738422706723	0.7447253610007465	keypress	right	left	asynchronous
431.26741803297773	2.070033805910498	keypress	right	right	synchronous
432.8050805609673	1.5376625279895961	keypress	right	left	asynchronous
434.76797292521223	1.962892364244908	keypress	right	right	synchronous
437.0997840492055	2.3318111239932477	keypress	right	left	asynchronous
439.16768313897774	2.0678990897722542	keypress	right	right	synchronous
440.81133420579135	1.643651066813618	keypress	right	left	asynchronous
442.72141228383407	1.9100780780427158	keypress	right	right	synchronous
444.2590893479064	1.5376770640723407	keypress	right	left	asynchronous
445.37886462407187	1.1197752761654556	keypress	right	right	synchronous
447.39328590920195	2.0144212851300836	keypress	right	left	asynchronous
448.88159360783175	1.4883076986297965	keypress	right	right	synchronous
450.04863581014797	1.1670422023162246	keypress	right	left	asynchronous
453.01815163716674	2.9695158270187676	keypress	right	right	synchronous
454.2377028618939	1.2195512247271836	keypress	right	left	asynchronous
457.20908510219306	2.9713822402991354	keypress	right	right	synchronous
458.85226645180956	1.6431813496164978	keypress	right	left	asynchronous
460.70969377690926	1.8574273250997066	keypress	right	right	synchronous
462.3014455358498	1.591751758940518	keypress	right	left	asynchronous
463.58022791100666	1.2787823751568794	keypress	right	right	synchronous
465.2207658351399	1.6405379241332412	keypress	right	left	asynchronous
466.97134420694783	1.7505783718079329	keypress	right	right	synchronous
468.5089667402208	1.5376225332729518	keypress	right	left	asynchronous
469.8362268190831	1.3272600788623095	keypress	right	right	synchronous
472.75536923715845	2.919142418075353	keypress	right	left	asynchronous
475.5174105260521	2.76204128889367	keypress	right	right	synchronous
477.6976933032274	2.1802827771753073	keypress	right	left	asynchronous
478.7598862568848	1.0621929536573589	keypress	right	right	synchronous
479.81991089787334	1.0600246409885585	keypress	right	left	asynchronous
481.19885295722634	1.378942059352994	keypress	right	right	synchronous
482.6286565749906	1.4298036177642643	keypress	right	left	asynchronous
484.4862625012174	1.8576059262268245	keypress	right	right	synchronous
487.5150851868093	3.0288226855918765	keypress	right	left	asynchronous
490.1162402732298	2.6011550864204764	keypress	right	right	synchronous
492.0778608592227	1.9616205859929323	keypress	right	left	asynchronous
493.4549524509348	1.3770915917120874	keypress	right	right	synchronous
495.83769148308784	2.38273903215304	keypress	right	left	asynchronous
498.48434259789065	2.6466511148028076	keypress	right	right	synchronous
501.39926400315017	2.91492140525952	keypress	right	left	asynchronous
504.31933052279055	2.920066519640386	keypress	right	right	synchronous
506.76075020618737	2.4414196833968163	keypress	right	left	asynchronous
513.3338099108078	6.573059704620391	keypress	right	right	synchronous
516.4120217841119	3.078211873304099	keypress	right	left	asynchronous
519.3287954148836	2.916773630771786	keypress	right	right	synchronous
521.1855672202073	1.8567718053236604	keypress	right	left	asynchronous
522.6144502907991	1.4288830705918372	keypress	right	right	synchronous
524.4186864001676	1.804236109368503	keypress	right	left	asynchronous
526.9169531869702	2.49826678680256	keypress	right	right	synchronous
528.6172040300444	1.7002508430741727	keypress	right	left	asynchronous
529.4142339611426	0.7970299310982227	keypress	right	right	synchronous
530.6861350978725	1.2719011367298663	keypress	right	left	asynchronous
532.3355639590882	1.6494288612157106	keypress	right	right	synchronous
533.8230469082482	1.4874829491600394	keypress	right	left	asynchronous
535.4149742550217	1.5919273467734456	keypress	right	right	synchronous
539.9222964211367	4.5073221661150455	keypress	right	left	asynchronous
542.9501198781654	3.027823457028717	keypress	right	right	synchronous
544.9123875400983	1.9622676619328558	keypress	right	left	asynchronous
545.6542881089263	0.7419005688279867	keypress	right	right	synchronous
547.299380640965	1.6450925320386887	keypress	right	left	asynchronous
548.2031665928662	0.9037859519012272	keypress	right	right	synchronous
551.0662197680213	2.8630531751550734	keypress	right	left	asynchronous
552.3390187649056	1.2727989968843758	keypress	right	right	synchronous
554.2460010731593	1.906982308253646	keypress	right	left	asynchronous
555.681596533861	1.4355954607017338	keypress	right	right	synchronous
556.7944078189321	1.112811285071075	keypress	right	left	asynchronous
558.2745734308846	1.4801656119525433	keypress	right	right	synchronous
562.7330663660541	4.458492935169488	keypress	right	left	asynchronous
566.1802278151736	3.4471614491194487	keypress	right	right	synchronous
567.4010379780084	1.2208101628348231	keypress	right	left	asynchronous
569.2639694730751	1.8629314950667322	keypress	right	right	synchronous
571.6994936261326	2.435524153057486	keypress	right	left	asynchronous
574.5643713129684	2.8648776868358254	keypress	right	right	synchronous
576.1592329330742	1.594861620105803	keypress	right	left	asynchronous
577.4340704767965	1.2748375437222421	keypress	right	right	synchronous
579.3968962300569	1.9628257532604039	keypress	right	left	asynchronous
582.0468493802473	2.649953150190413	keypress	right	right	synchronous
586.1790000069886	4.13215062674135	keypress	right	left	asynchronous
589.7887213979848	3.6097213909961283	keypress	right	right	synchronous
591.1645979168825	1.3758765188977122	keypress	right	left	asynchronous
592.3339578257874	1.1693599089048803	keypress	right	right	synchronous
593.5548850698397	1.220927244052291	keypress	right	left	asynchronous
595.255972599145	1.7010875293053687	keypress	right	right	synchronous
596.4229187578894	1.1669461587443948	keypress	right	left	asynchronous
596.9561844859272	0.5332657280378044	keypress	right	right	synchronous
597.433574590832	0.47739010490477085	keypress	right	left	asynchronous
599.7183712972328	n/a	keypress	right	right	synchronous
600.0333520770073	n/a	end_rivalry	right	n/a	n/a
