onset	duration	trial	sync_side	key	dominant
0.0	n/a	start_rivalry	right	n/a	n/a
2.2302680630236864	n/a	keypress	right	left	asynchronous
4.13966154307127	1.9093934800475836	keypress	right	right	synchronous
5.256604140624404	1.116942597553134	keypress	right	left	asynchronous
8.598683870397508	3.342079729773104	keypress	right	right	synchronous
11.095925190486014	2.4972413200885057	keypress	right	left	asynchronous
12.262895266525447	1.1669700760394335	keypress	right	right	synchronous
13.482000817544758	1.219105551019311	keypress	right	left	asynchronous
15.86825643107295	2.386255613528192	keypress	right	right	synchronous
21.437989870086312	5.569733439013362	keypress	right	left	asynchronous
24.09149448107928	2.653504610992968	keypress	right	right	synchronous
25.42192534543574	1.3304308643564582	keypress	right	left	asynchronous
27.27794921118766	1.8560238657519221	keypress	right	right	synchronous
29.82732422929257	2.549375018104911	keypress	right	left	asynchronous
33.69728607311845	3.8699618438258767	keypress	right	right	synchronous
35.76431080605835	2.067024732939899	keypress	right	left	asynchronous
37.09438425209373	1.3300734460353851	keypress	right	right	synchronous
38.846510367468	1.752126115374267	keypress	right	left	asynchronous
42.45580251328647	3.609292145818472	keypress	right	right	synchronous
45.372459448874	2.9166569355875254	keypress	right	left	asynchronous
49.776384714990854	4.4039252661168575	keypress	right	right	synchronous
50.9442403037101	1.1678555887192488	keypress	right	left	asynchronous
54.766679560765624	3.822439257055521	keypress	right	right	synchronous
60.54499959293753	5.778320032171905	keypress	right	left	asynchronous
63.88301168847829	3.338012095540762	keypress	right	right	synchronous
67.12128416169435	3.238272473216057	keypress	right	left	asynchronous
72.21321162302047	5.091927461326122	keypress	right	right	synchronous
75.49917728733271	3.2859656643122435	keypress	right	left	asynchronous
77.08887587953359	1.5896985922008753	keypress	right	right	synchronous
86.89891882892698	9.810042949393392	keypress	right	left	asynchronous
87.53699473943561	0.6380759105086327	keypress	right	right	synchronous
88.86586909834296	1.328874358907342	keypress	right	left	asynchronous
91.73515980597585	2.8692907076328993	keypress	right	right	synchronous
94.80960115231574	3.0744413463398814	keypress	right	left	asynchronous
97.83178225718439	3.0221811048686504	keypress	right	right	synchronous
98.99885302968323	1.167070772498846	keypress	right	left	asynchronous
100.96490396745503	1.9660509377717972	keypress	right	right	synchronous
102.39849540498108	1.4335914375260472	keypress	right	left	asynchronous
105.42751107085496	3.029015665873885	keypress	right	right	synchronous
108.6584050366655	3.2308939658105373	keypress	right	left	asynchronous
110.78044137731194	2.1220363406464458	keypress	right	right	synchronous
112.37754854839295	1.5971071710810065	keypress	right	left	asynchronous
114.71199148800224	2.334442939609289	keypress	right	right	synchronous
117.6264726947993	2.9144812067970634	keypress	right	left	asynchronous
119.80115981772542	2.174687122926116	keypress	right	right	synchronous
121.07419367134571	1.2730338536202908	keypress	right	left	asynchronous
122.98123372066766	1.9070400493219495	keypress	right	right	synchronous
124.67844383697957	1.6972101163119078	keypress	right	left	asynchronous
128.70651274267584	4.028068905696273	keypress	right	right	synchronous
130.56261028535664	1.8560975426808	keypress	right	left	asynchronous
133.31958198081702	2.756971695460379	keypress	right	right	synchronous
134.6511264499277	1.3315444691106677	keypress	right	left	asynchronous
136.87819823808968	2.227071788161993	keypress	right	right	synchronous
139.11382556986064	2.2356273317709565	keypress	right	left	asynchronous
142.83236783463508	3.7185422647744417	keypress	right	right	synchronous
145.535398485139	2.7030306505039334	keypress	right	left	asynchronous
153.12568127829581	7.590282793156803	keypress	right	right	synchronous
155.14912950154394	2.023448223248124	keypress	right	left	asynchronous
158.44748194981366	3.298352448269725	keypress	right	right	synchronous
165.18901790864766	6.7415359588339925	keypress	right	left	asynchronous
167.8435534723103	2.654535563662648	keypress	right	right	synchronous
171.2965836878866	3.453030215576291	keypress	right	left	asynchronous
173.20482855383307	1.9082448659464717	keypress	right	right	synchronous
175.37664334196597	2.171814788132906	keypress	right	left	asynchronous
178.1309589482844	2.754315606318414	keypress	right	right	synchronous
180.14721714053303	2.0162581922486424	keypress	right	left	asynchronous
184.12397988978773	3.9767627492547035	keypress	right	right	synchronous
186.72746169008315	2.6034818002954125	keypress	right	left	asynchronous
188.26754549145699	1.5400838013738394	keypress	right	right	synchronous
195.47851886879653	7.210973377339542	keypress	right	left	asynchronous
197.60274368990213	2.1242248211055994	keypress	right	right	synchronous
199.3532330635935	1.75048937369138	keypress	right	left	asynchronous
202.0528839994222	2.6996509358286858	keypress	right	right	synchronous
203.1150546921417	1.0621706927195191	keypress	right	left	asynchronous
206.2465137830004	3.131459090858698	keypress	right	right	synchronous
207.6230048229918	1.3764910399913788	keypress	right	left	asynchronous
210.114394210279	2.4913893872871995	keypress	right	right	synchronous
211.1788023011759	1.0644080908969045	keypress	right	left	asynchronous
213.56643021665514	2.387627915479243	keypress	right	right	synchronous
214.52064990997314	0.9542196933180094	keypress	right	left	asynchronous
217.32976993732154	2.809120027348399	keypress	right	right	synchronous
219.02477352228016	1.695003584958613	keypress	right	left	asynchronous
222.85269810259342	3.8279245803132653	keypress	right	right	synchronous
227.98809274472296	5.13539464212954	keypress	right	left	asynchronous
234.24860070738941	6.260507962666452	keypress	right	right	synchronous
236.26240071747452	2.013800010085106	keypress	right	left	asynchronous
238.86464111227542	2.6022403948009014	keypress	right	right	synchronous
246.5592070510611	7.694565938785672	keypress	right	left	asynchronous
249.2157783638686	2.6565713128075004	keypress	right	right	synchronous
250.11692586168647	0.901147497817874	keypress	right	left	asynchronous
252.02974021993577	1.9128143582493067	keypress	right	right	synchronous
253.25434040743858	1.2246001875028014	keypress	right	left	asynchronous
256.5459548458457	3.291614438407123	keypress	right	right	synchronous
258.88007105793804	2.33411621209234	keypress	right	left	asynchronous
260.261188053526	1.381116995587945	keypress	right	right	synchronous
262.329923578538	2.0687355250120163	keypress	right	left	asynchronous
269.3811917761341	7.051268197596073	keypress	right	right	synchronous
271.13152522500604	1.7503334488719702	keypress	right	left	asynchronous
274.997649859637	3.866124634630978	keypress	right	right	synchronous
275.5284601561725	0.5308102965354919	keypress	right	left	asynchronous
277.49121575057507	1.9627555944025517	keypress	right	right	synchronous
278.5566576104611	1.0654418598860502	keypress	right	left	asynchronous
281.21001968253404	2.653362072072923	keypress	right	right	synchronous
282.1629010112956	0.9528813287615776	keypress	right	left	asynchronous
284.8718242291361	2.7089232178404927	keypress	right	right	synchronous
287.2047362178564	2.332911988720298	keypress	right	left	asynchronous
291.44699357356876	4.242257355712354	keypress	right	right	synchronous
291.87331096455455	0.4263173909857869	keypress	right	left	asynchronous
294.10053385142237	2.227222886867821	keypress	right	right	synchronous
295.52913907542825	1.428605224005878	keypress	right	left	asynchronous
299.2448476040736	3.7157085286453366	keypress	right	right	synchronous
300.4123566644266	1.1675090603530407	keypress	right	left	asynchronous
303.17127269506454	2.75891603063792	keypress	right	right	synchronous
304.4445361159742	1.2732634209096432	keypress	right	left	asynchronous
307.15164475608617	2.707108640111983	keypress	right	right	synchronous
308.37477425672114	1.2231295006349683	keypress	right	left	asynchronous
314.0501710474491	5.675396790727973	keypress	right	right	synchronous
316.7055925168097	2.65542146936059	keypress	right	left	asynchronous
319.3574364334345	2.6518439166247845	keypress	right	right	synchronous
322.5408782893792	3.183441855944693	keypress	right	left	asynchronous
323.551296309568	1.0104180201888084	keypress	right	right	synchronous
327.0995601741597	3.5482638645917177	keypress	right	left	asynchronous
327.47036933898926	0.3708091648295522	keypress	right	right	synchronous
329.5386427072808	2.068273368291557	keypress	right	left	asynchronous
331.29181594215333	1.75317323487252	keypress	right	right	synchronous
332.1376860337332	0.8458700915798545	keypress	right	left	asynchronous
335.900838309899	3.7631522761657834	keypress	right	right	synchronous
337.38528687134385	1.4844485614448786	keypress	right	left	asynchronous
339.983285471797	2.5979986004531384	keypress	right	right	synchronous
341.15332917217165	1.1700437003746629	keypress	right	left	asynchronous
345.28800003696233	4.134670864790678	keypress	right	right	synchronous
348.3661730317399	3.0781729947775602	keypress	right	left	asynchronous
349.4281750507653	1.0620020190253854	keypress	right	right	synchronous
350.70170716475695	1.2735321139916778	keypress	right	left	asynchronous
356.2171319536865	5.515424788929522	keypress	right	right	synchronous
360.7752034915611	4.558071537874639	keypress	right	left	asynchronous
363.1622204883024	2.387016996741295	keypress	right	right	synchronous
364.3832703111693	1.2210498228669167	keypress	right	left	asynchronous
366.8761941138655	2.4929238026961684	keypress	right	right	synchronous
367.61875486094505	0.7425607470795512	keypress	right	left	asynchronous
369.63311610464007	2.0143612436950207	keypress	right	right	synchronous
371.383974134922	1.750858030281961	keypress	right	left	asynchronous
373.9355467064306	2.5515725715085864	keypress	right	right	synchronous
375.8474268009886	1.9118800945580006	keypress	right	left	asynchronous
378.021096739918	2.173669938929379	keypress	right	right	synchronous
379.77337607741356	1.7522793374955654	keypress	right	left	asynchronous
382.21868375036865	2.4453076729550958	keypress	right	right	synchronous
383.96999407559633	1.7513103252276778	keypress	right	left	asynchronous
390.6068758945912	6.63688181899488	keypress	right	right	synchronous
391.93523570429534	1.328359809704125	keypress	right	left	asynchronous
394.4314916897565	2.4962559854611754	keypress	right	right	synchronous
395.3858693167567	0.9543776270002127	keypress	right	left	asynchronous
397.19391020201147	1.8080408852547407	keypress	right	right	synchronous
398.62290574610233	1.428995544090867	keypress	right	left	asynchronous
400.53211105056107	1.9092053044587374	keypress	right	right	synchronous
401.4357966128737	0.903685562312603	keypress	right	left	asynchronous
403.4523375816643	2.0165409687906504	keypress	right	right	synchronous
405.2619358981028	1.8095983164384961	keypress	right	left	asynchronous
407.59826920274645	2.336333304643631	keypress	right	right	synchronous
408.233655968681	0.6353867659345269	keypress	right	left	asynchronous
410.41541995014995	2.1817639814689755	keypress	right	right	synchronous
411.2672101985663	0.8517902484163642	keypress	right	left	asynchronous
414.02798810973763	2.760777911171317	keypress	right	right	synchronous
421.67150075547397	7.643512645736337	keypress	right	left	asynchronous
423.2597243031487	1.5882235476747155	keypress	right	right	synchronous
424.4348282394931	1.1751039363443851	keypress	right	left	asynchronous
427.5131668988615	3.0783386593684554	keypress	right	right	synchronous
429.1073550619185	1.5941881630569696	keypress	right	left	asynchronous
431.9737765304744	2.8664214685559273	keypress	right	right	synchronous
435.3130946876481	3.339318157173693	keypress	right	left	asynchronous
437.64790869131684	2.3348140036687255	keypress	right	right	synchronous
438.7076365798712	1.0597278885543346	keypress	right	left	asynchronous
441.99832871649414	3.2906921366229653	keypress	right	right	synchronous
445.2399587156251	3.2416299991309643	keypress	right	left	asynchronous
451.0775468610227	5.8375881453976035	keypress	right	right	synchronous
452.72462886944413	1.647082008421421	keypress	right	left	asynchronous
456.63881014753133	3.9141812780871987	keypress	right	right	synchronous
457.43893791362643	0.8001277660951018	keypress	right	left	asynchronous
458.87066915258765	1.4317312389612198	keypress	right	right	synchronous
464.4969113273546	5.626242174766958	keypress	right	left	asynchronous
467.94854845386	3.451637126505375	keypress	right	right	synchronous
471.5566915180534	3.6081430641934276	keypress	right	left	asynchronous
473.04056165367365	1.4838701356202364	keypress	right	right	synchronous
474.7939027752727	1.7533411215990782	keypress	right	left	asynchronous
478.93020035140216	4.1362975761294365	keypress	right	right	synchronous
482.643502891995	3.7133025405928493	keypress	right	left	asynchronous
487.26314827334136	4.619645381346345	keypress	right	right	synchronous
489.3306562965736	2.0675080232322216	keypress	right	left	asynchronous
490.92198950611055	1.5913332095369697	keypress	right	right	synchronous
493.5754463048652	2.6534567987546325	keypress	right	left	asynchronous
497.4555141078308	3.880067802965641	keypress	right	right	synchronous
498.83316253032535	1.3776484224945307	keypress	right	left	asynchronous
500.47518649697304	1.6420239666476846	keypress	right	right	synchronous
501.53667625412345	1.0614897571504116	keypress	right	left	asynchronous
504.2413910999894	2.704714845865965	keypress	right	right	synchronous
505.40975482482463	1.168363724835217	keypress	right	left	asynchronous
507.1064870720729	1.696732247248292	keypress	right	right	synchronous
507.85236037150025	0.7458732994273305	keypress	right	left	asynchronous
511.2455986710265	3.393238299526274	keypress	right	right	synchronous
512.4666157392785	1.2210170682519674	keypress	right	left	asynchronous
516.021018108353	3.5544023690745234	keypress	right	right	synchronous
517.9872833648697	1.9662652565166354	keypress	right	left	asynchronous
524.4514000341296	6.464116669259965	keypress	right	right	synchronous
525.0871242219582	0.6357241878286004	keypress	right	left	asynchronous
528.1580941518769	3.070969929918647	keypress	right	right	synchronous
529.4910848354921	1.3329906836152077	keypress	right	left	asynchronous
533.6831856891513	4.192100853659213	keypress	right	right	synchronous
536.022217400372	2.3390317112207413	keypress	right	left	asynchronous
538.8350918851793	2.812874484807253	keypress	right	right	synchronous
539.42020943854	0.5851175533607602	keypress	right	left	asynchronous
542.18106930051	2.760859861969948	keypress	right	right	synchronous
544.5105083417147	2.3294390412047505	keypress	right	left	asynchronous
545.6773387780413	1.1668304363265634	keypress	right	right	synchronous
547.427148011513	1.7498092334717512	keypress	right	left	asynchronous
552.2993016503751	4.872153638862073	keypress	right	right	synchronous
553.4143240908161	1.1150224404409528	keypress	right	left	asynchronous
557.556482296437	4.1421582056209445	keypress	right	right	synchronous
558.0865878555924	0.530105559155345	keypress	right	left	asynchronous
562.7004827642813	4.6138949086889625	keypress	right	right	synchronous
564.662754339166	1.962271574884653	keypress	right	left	asynchronous
568.1659155683592	3.5031612291932106	keypress	right	right	synchronous
570.8701425157487	2.704226947389543	keypress	right	left	asynchronous
578.2984866993502	7.428344183601439	keypress	right	right	synchronous
580.7934156348929	2.4949289355427027	keypress	right	left	asynchronous
585.7749517438933	4.981536109000444	keypress	right	right	synchronous
588.693849267438	2.9188975235447288	keypress	right	left	asynchronous
590.3933573374525	n/a	keypress	right	right	synchronous
600.0605783527717	n/a	end_rivalry	right	n/a	n/a
