onset	duration	trial	sync_side	key	dominant
0.0	n/a	start_rivalry	right	n/a	n/a
0.7432537651620805	n/a	keypress	right	right	synchronous
1.0614672838710248	0.3182135187089443	keypress	right	left	asynchronous
2.0688698841258883	1.0074026002548635	keypress	right	right	synchronous
2.54761695722118	0.47874707309529185	keypress	right	left	asynchronous
3.3966076700016856	0.8489907127805054	keypress	right	right	synchronous
4.457395465113223	1.060787795111537	keypress	right	left	asynchronous
5.410978137049824	0.9535826719366014	keypress	right	right	synchronous
6.631596382241696	1.2206182451918721	keypress	right	left	asynchronous
7.642192662227899	1.0105962799862027	keypress	right	right	synchronous
8.76083534117788	1.118642678949982	keypress	right	left	asynchronous
9.824916240293533	1.0640808991156518	keypress	right	right	synchronous
11.267168235965073	1.4422519956715405	keypress	right	left	asynchronous
12.329459704924375	1.0622914689593017	keypress	right	right	synchronous
14.184187046252191	1.8547273413278162	keypress	right	left	asynchronous
15.249809464905411	1.06562241865322	keypress	right	right	synchronous
16.57301394827664	1.323204483371228	keypress	right	left	asynchronous
18.48097652802244	1.9079625797457993	keypress	right	right	synchronous
20.497367944102734	2.016391416080296	keypress	right	left	asynchronous
21.50596148101613	1.008593536913395	keypress	right	right	synchronous
22.570055008865893	1.0640935278497636	keypress	right	left	asynchronous
23.52380809187889	0.9537530830129981	keypress	right	right	synchronous
24.532624090090394	1.008815998211503	keypress	right	left	asynchronous
25.119035016279668	0.5864109261892736	keypress	right	right	synchronous
25.703928360249847	0.5848933439701796	keypress	right	left	asynchronous
26.18047191016376	0.476543549913913	keypress	right	right	synchronous
26.71109658619389	0.5306246760301292	keypress	right	left	asynchronous
28.19725882494822	1.486162238754332	keypress	right	right	synchronous
29.364511375315487	1.167252550367266	keypress	right	left	asynchronous
30.322415008209646	0.9579036328941584	keypress	right	right	synchronous
31.490186410024762	1.1677714018151164	keypress	right	left	asynchronous
32.76375474687666	1.2735683368518949	keypress	right	right	synchronous
35.521647756919265	2.757893010042608	keypress	right	left	asynchronous
36.264910601079464	0.7432628441601992	keypress	right	right	synchronous
38.54761068196967	2.2827000808902085	keypress	right	left	asynchronous
39.183783441316336	0.636172759346664	keypress	right	right	synchronous
40.7778175631538	1.594034121837467	keypress	right	left	asynchronous
41.20359502220526	0.42577745905146	keypress	right	right	synchronous
41.84065031027421	0.6370552880689502	keypress	right	left	asynchronous
42.370081312954426	0.5294310026802123	keypress	right	right	synchronous
44.81295438390225	2.442873070947826	keypress	right	left	asynchronous
45.502826982177794	0.6898725982755423	keypress	right	right	synchronous
46.619968423154205	1.117141440976411	keypress	right	left	asynchronous
46.93875408824533	0.31878566509112716	keypress	right	right	synchronous
48.05299767898396	1.1142435907386243	keypress	right	left	asynchronous
48.74340875307098	0.6904110740870237	keypress	right	right	synchronous
50.22723549697548	1.4838267439045012	keypress	right	left	asynchronous
50.97087542992085	0.7436399329453707	keypress	right	right	synchronous
52.03293588431552	1.0620604543946683	keypress	right	left	asynchronous
52.45810940908268	0.4251735247671604	keypress	right	right	synchronous
53.628336429130286	1.170227020047605	keypress	right	left	asynchronous
54.21192139899358	0.5835849698632956	keypress	right	right	synchronous
55.27701279427856	1.0650913952849805	keypress	right	left	asynchronous
55.91501500830054	0.6380022140219808	keypress	right	right	synchronous
56.97310016490519	1.0580851566046476	keypress	right	left	asynchronous
57.765795157290995	0.7926949923858047	keypress	right	right	synchronous
58.93261223426089	1.1668170769698918	keypress	right	left	asynchronous
59.8362092198804	0.9035969856195152	keypress	right	right	synchronous
61.31839887006208	1.482189650181681	keypress	right	left	asynchronous
62.38342310395092	1.0650242338888347	keypress	right	right	synchronous
63.65699478518218	1.2735716812312603	keypress	right	left	asynchronous
64.61471887910739	0.9577240939252079	keypress	right	right	synchronous
65.30625008186325	0.6915312027558684	keypress	right	left	asynchronous
66.15551796229556	0.8492678804323077	keypress	right	right	synchronous
67.21754334215075	1.0620253798551857	keypress	right	left	asynchronous
68.75709803402424	1.5395546918734908	keypress	right	right	synchronous
69.34130859188735	0.5842105578631163	keypress	right	left	asynchronous
69.92417280096561	0.5828642090782523	keypress	right	right	synchronous
73.53872400103137	3.614551200065762	keypress	right	left	asynchronous
73.90862877713516	0.3699047761037946	keypress	right	right	synchronous
74.49197875102982	0.5833499738946557	keypress	right	left	asynchronous
74.91902004508302	0.4270412940531969	keypress	right	right	synchronous
75.55593822710216	0.6369181820191443	keypress	right	left	asynchronous
75.87304313806817	0.3171049109660089	keypress	right	right	synchronous
76.72361710201949	0.8505739639513195	keypress	right	left	asynchronous
77.36084708105773	0.6372299790382385	keypress	right	right	synchronous
78.15946034993976	0.7986132688820362	keypress	right	left	asynchronous
78.95778797613457	0.7983276261948049	keypress	right	right	synchronous
80.01492796419188	1.0571399880573153	keypress	right	left	asynchronous
80.38758636731654	0.37265840312466025	keypress	right	right	synchronous
81.8240239880979	1.436437620781362	keypress	right	left	asynchronous
82.56675347918645	0.7427294910885394	keypress	right	right	synchronous
83.36437618732452	0.7976227081380785	keypress	right	left	asynchronous
84.16037301486358	0.7959968275390565	keypress	right	right	synchronous
84.9600052209571	0.7996322060935199	keypress	right	left	asynchronous
85.7014295682311	0.7414243472740054	keypress	right	right	synchronous
86.44179171603173	0.7403621478006244	keypress	right	left	asynchronous
87.44751682132483	1.0057251052930951	keypress	right	right	synchronous
88.56073248991743	1.113215668592602	keypress	right	left	asynchronous
88.98734604008496	0.4266135501675308	keypress	right	right	synchronous
89.46539091225713	0.47804487217217684	keypress	right	left	asynchronous
89.73021813621745	0.2648272239603102	keypress	right	right	synchronous
90.89981098799035	1.1695928517729044	keypress	right	left	asynchronous
91.27275988599285	0.3729488980025053	keypress	right	right	synchronous
91.53967265319079	0.2669127671979368	keypress	right	left	asynchronous
91.80580995604396	0.26613730285316706	keypress	right	right	synchronous
91.91222192393616	0.10641196789219975	keypress	right	left	asynchronous
92.44456559000537	0.5323436660692096	keypress	right	right	synchronous
92.86823603091761	0.4236704409122467	keypress	right	left	asynchronous
93.02819049125537	0.15995446033775806	keypress	right	right	synchronous
93.97995665529743	0.9517661640420556	keypress	right	left	asynchronous
94.30017722398043	0.3202205686829984	keypress	right	right	synchronous
94.938164324034	0.6379871000535786	keypress	right	left	asynchronous
95.3088966072537	0.3707322832196951	keypress	right	right	synchronous
96.36792804626748	1.0590314390137792	keypress	right	left	asynchronous
97.53308256715536	1.1651545208878815	keypress	right	right	synchronous
99.5465922630392	2.0135096958838403	keypress	right	left	asynchronous
100.29150188108906	0.74490961804986	keypress	right	right	synchronous
103.68980515003204	3.398303268942982	keypress	right	left	asynchronous
104.22028472227976	0.5304795722477138	keypress	right	right	synchronous
105.4467913811095	1.2265066588297486	keypress	right	left	asynchronous
105.9245399129577	0.4777485318481922	keypress	right	right	synchronous
106.5074238339439	0.5828839209862053	keypress	right	left	asynchronous
107.1975551340729	0.6901313001289964	keypress	right	right	synchronous
107.6753464769572	0.47779134288430214	keypress	right	left	asynchronous
110.27615248830989	2.600806011352688	keypress	right	right	synchronous
110.91419734200463	0.638044853694737	keypress	right	left	asynchronous
111.44427993800491	0.530082596000284	keypress	right	right	synchronous
112.18672416405752	0.7424442260526121	keypress	right	left	asynchronous
112.93160965200514	0.744885487947613	keypress	right	right	synchronous
113.83276730403304	0.901157652027905	keypress	right	left	asynchronous
115.05499931331724	1.2222320092841983	keypress	right	right	synchronous
116.64520033821464	1.5902010248973966	keypress	right	left	asynchronous
117.2286304240115	0.5834300857968628	keypress	right	right	synchronous
118.1842081299983	0.9555777059867978	keypress	right	left	asynchronous
120.62491756398231	2.4407094339840114	keypress	right	right	synchronous
123.01193648809567	2.387018924113363	keypress	right	left	asynchronous
123.96675427816808	0.9548177900724113	keypress	right	right	synchronous
125.18901251908392	1.222258240915835	keypress	right	left	asynchronous
126.09693189617246	0.9079193770885468	keypress	right	right	synchronous
127.47777717607096	1.3808452798984945	keypress	right	left	asynchronous
128.64538772404194	1.1676105479709804	keypress	right	right	synchronous
129.6503501809202	1.0049624568782747	keypress	right	left	asynchronous
130.70977149298415	1.0594213120639324	keypress	right	right	synchronous
131.98350419290364	1.273732699919492	keypress	right	left	asynchronous
132.4095978019759	0.426093609072268	keypress	right	right	synchronous
132.7802793951705	0.3706815931946039	keypress	right	left	asynchronous
133.15276633016765	0.37248693499714136	keypress	right	right	synchronous
134.37029964011163	1.217533309943974	keypress	right	left	asynchronous
135.0611098879017	0.6908102477900684	keypress	right	right	synchronous
136.17870181705803	1.1175919291563332	keypress	right	left	asynchronous
137.34764819499105	1.1689463779330254	keypress	right	right	synchronous
138.5152797671035	1.167631572112441	keypress	right	left	asynchronous
139.6292446120642	1.1139648449607193	keypress	right	right	synchronous
140.74463127413765	1.1153866620734334	keypress	right	left	asynchronous
141.17041705688462	0.42578578274697065	keypress	right	right	synchronous
142.49959183018655	1.3291747733019292	keypress	right	left	asynchronous
143.19040140789002	0.690809577703476	keypress	right	right	synchronous
144.35777104692534	1.1673696390353143	keypress	right	left	asynchronous
145.36539992131293	1.007628874387592	keypress	right	right	synchronous
146.536921009887	1.1715210885740817	keypress	right	left	asynchronous
147.54140331828967	1.0044823084026575	keypress	right	right	synchronous
148.8160134702921	1.274610152002424	keypress	right	left	asynchronous
149.87930805794895	1.0632945876568556	keypress	right	right	synchronous
151.20542991021648	1.3261218522675335	keypress	right	left	asynchronous
152.48162726219743	1.2761973519809544	keypress	right	right	synchronous
153.65010476997122	1.1684775077737868	keypress	right	left	asynchronous
154.71127199195325	1.061167221982032	keypress	right	right	synchronous
155.77455642493442	1.0632844329811633	keypress	right	left	asynchronous
156.46143364999443	0.6868772250600159	keypress	right	right	synchronous
156.99183966219425	0.5304060121998191	keypress	right	left	asynchronous
157.5755895311013	0.5837498689070344	keypress	right	right	synchronous
158.10775319626555	0.5321636651642621	keypress	right	left	asynchronous
158.63935532001778	0.5316021237522364	keypress	right	right	synchronous
159.1696953852661	0.5303400652483106	keypress	right	left	asynchronous
159.70060079311952	0.5309054078534245	keypress	right	right	synchronous
160.2302936189808	0.5296928258612752	keypress	right	left	asynchronous
160.76014061830938	0.5298469993285835	keypress	right	right	synchronous
161.39651518594474	0.6363745676353574	keypress	right	left	asynchronous
161.9300599922426	0.5335448062978685	keypress	right	right	synchronous
162.51497466117144	0.5849146689288318	keypress	right	left	asynchronous
163.09793279599398	0.5829581348225474	keypress	right	right	synchronous
164.37065058015287	1.2727177841588855	keypress	right	left	asynchronous
164.9021140509285	0.531463470775634	keypress	right	right	synchronous
166.12213938497007	1.2200253340415657	keypress	right	left	asynchronous
166.8134270501323	0.6912876651622355	keypress	right	right	synchronous
167.55597665719688	0.742549607064575	keypress	right	left	asynchronous
168.2005178462714	0.6445411890745163	keypress	right	right	synchronous
169.26423901319504	1.0637211669236422	keypress	right	left	asynchronous
171.013491733931	1.7492527207359672	keypress	right	right	synchronous
171.8089381302707	0.7954463963396847	keypress	right	left	asynchronous
172.81856500031427	1.0096268700435758	keypress	right	right	synchronous
174.5158348721452	1.6972698718309402	keypress	right	left	asynchronous
174.99514237605035	0.4793075039051473	keypress	right	right	synchronous
175.52554787509143	0.5304054990410805	keypress	right	left	asynchronous
176.05451272102073	0.5289648459292948	keypress	right	right	synchronous
176.58553558727726	0.531022866256535	keypress	right	left	asynchronous
177.9634335390292	1.3778979517519474	keypress	right	right	synchronous
178.92194516118616	0.9585116221569479	keypress	right	left	asynchronous
179.2981949900277	0.37624982884153724	keypress	right	right	synchronous
179.5100309229456	0.21183593291789293	keypress	right	left	asynchronous
180.2512493999675	0.7412184770219028	keypress	right	right	synchronous
180.83385925088078	0.5826098509132862	keypress	right	left	asynchronous
181.04603865509853	0.21217940421774983	keypress	right	right	synchronous
182.15965376794338	1.1136151128448546	keypress	right	left	asynchronous
182.9034560942091	0.7438023262657225	keypress	right	right	synchronous
184.12288825586438	1.219432161655277	keypress	right	left	asynchronous
185.07788841892034	0.9550001630559564	keypress	right	right	synchronous
185.87531804013997	0.797429621219635	keypress	right	left	asynchronous
186.4611766389571	0.5858585988171399	keypress	right	right	synchronous
187.3100948180072	0.8489181790500879	keypress	right	left	asynchronous
188.15949294390157	0.8493981258943677	keypress	right	right	synchronous
189.48803955409676	1.3285466101951897	keypress	right	left	asynchronous
189.9662100779824	0.4781705238856375	keypress	right	right	synchronous
191.67127028526738	1.705060207284987	keypress	right	left	asynchronous
193.4246127991937	1.7533425139263272	keypress	right	right	synchronous
194.85605521127582	1.4314424120821059	keypress	right	left	asynchronous
195.8631548169069	1.0070996056310833	keypress	right	right	synchronous
196.70970473997295	0.8465499230660498	keypress	right	left	asynchronous
199.5766294640489	2.8669247240759432	keypress	right	right	synchronous
200.79671067697927	1.2200812129303813	keypress	right	left	asynchronous
201.75565753411502	0.9589468571357429	keypress	right	right	synchronous
203.6101118279621	1.854454293847084	keypress	right	left	asynchronous
204.56444579409435	0.9543339661322534	keypress	right	right	synchronous
205.72966434806585	1.1652185539714992	keypress	right	left	asynchronous
206.84317753789946	1.1135131898336112	keypress	right	right	synchronous
208.06487957620993	1.2217020383104682	keypress	right	left	asynchronous
209.18098552618176	1.1161059499718249	keypress	right	right	synchronous
213.533881531097	4.352896004915237	keypress	right	left	asynchronous
215.01621426688507	1.4823327357880771	keypress	right	right	synchronous
217.18611003505066	2.1698957681655884	keypress	right	left	asynchronous
218.56580631807446	1.3796962830238044	keypress	right	right	synchronous
219.84191977605224	1.2761134579777718	keypress	right	left	asynchronous
220.95874600391835	1.1168262278661132	keypress	right	right	synchronous
222.02496448997408	1.0662184860557318	keypress	right	left	asynchronous
223.0333870910108	1.0084226010367274	keypress	right	right	synchronous
224.2569003640674	1.2235132730565965	keypress	right	left	asynchronous
225.58773933211342	1.3308389680460095	keypress	right	right	synchronous
226.48829298093915	0.9005536488257349	keypress	right	left	asynchronous
227.0196967232041	0.5314037422649562	keypress	right	right	synchronous
227.97415479598567	0.9544580727815628	keypress	right	left	asynchronous
229.0320845921524	1.057929796166718	keypress	right	right	synchronous
230.08790570590645	1.0558211137540638	keypress	right	left	asynchronous
231.14700183691457	1.0590961310081184	keypress	right	right	synchronous
232.42496332712471	1.2779614902101457	keypress	right	left	asynchronous
233.22157875215635	0.7966154250316322	keypress	right	right	synchronous
235.08059943607077	1.859020683914423	keypress	right	left	asynchronous
236.35791186708957	1.2773124310187995	keypress	right	right	synchronous
238.26990863494575	1.9119967678561807	keypress	right	left	asynchronous
239.33111538505182	1.0612067501060665	keypress	right	right	synchronous
240.4432747028768	1.1121593178249896	keypress	right	left	asynchronous
241.4476334680803	1.0043587652035058	keypress	right	right	synchronous
242.72381179919466	1.2761783311143517	keypress	right	left	asynchronous
243.52114279102534	0.7973309918306768	keypress	right	right	synchronous
246.12099498603493	2.599852195009589	keypress	right	left	asynchronous
246.4402888379991	0.3192938519641757	keypress	right	right	synchronous
246.81129798013717	0.3710091421380639	keypress	right	left	asynchronous
247.39978264691308	0.588484666775912	keypress	right	right	synchronous
248.19893422117457	0.7991515742614865	keypress	right	left	asynchronous
249.36684636306018	1.1679121418856084	keypress	right	right	synchronous
251.38108448591083	2.0142381228506565	keypress	right	left	asynchronous
252.22994144121185	0.8488569553010166	keypress	right	right	synchronous
254.189215997234	1.9592745560221374	keypress	right	left	asynchronous
254.8759568813257	0.6867408840917051	keypress	right	right	synchronous
255.98874924890697	1.112792367581278	keypress	right	left	asynchronous
256.6268960312009	0.6381467822939157	keypress	right	right	synchronous
261.93458491098136	5.307688879780471	keypress	right	left	asynchronous
262.20325291203335	0.2686680010519922	keypress	right	right	synchronous
263.95348411332816	1.7502312012948096	keypress	right	left	asynchronous
264.48322047805414	0.5297363647259772	keypress	right	right	synchronous
265.2801584750414	0.7969379969872534	keypress	right	left	asynchronous
265.9664616440423	0.6863031690008938	keypress	right	right	synchronous
266.60427347011864	0.6378118260763586	keypress	right	left	asynchronous
267.18908361624926	0.5848101461306214	keypress	right	right	synchronous
267.8791634212248	0.6900798049755394	keypress	right	left	asynchronous
268.35804741596803	0.47888399474322796	keypress	right	right	synchronous
268.94112615427	0.5830787383019924	keypress	right	left	asynchronous
269.36621383205056	0.4250876777805388	keypress	right	right	synchronous
271.16725254710764	1.801038715057075	keypress	right	left	asynchronous
272.0678318021819	0.9005792550742626	keypress	right	right	synchronous
273.12693777214736	1.059105969965458	keypress	right	left	asynchronous
274.18794875917956	1.0610109870322049	keypress	right	right	synchronous
274.87935612909496	0.691407369915396	keypress	right	left	asynchronous
275.8359221541323	0.9565660250373185	keypress	right	right	synchronous
276.4189111161977	0.5829889620654285	keypress	right	left	asynchronous
277.16535689588636	0.7464457796886563	keypress	right	right	synchronous
277.9089304590598	0.7435735631734133	keypress	right	left	asynchronous
278.5465247859247	0.637594326864928	keypress	right	right	synchronous
279.077944485005	0.5314196990802884	keypress	right	left	asynchronous
279.76813537208363	0.6901908870786428	keypress	right	right	synchronous
281.0459865210578	1.2778511489741504	keypress	right	left	asynchronous
281.4709719233215	0.42498540226370096	keypress	right	right	synchronous
282.00357551686466	0.5326035935431719	keypress	right	left	asynchronous
282.8521758541465	0.8486003372818232	keypress	right	right	synchronous
283.64794145012274	0.7957655959762633	keypress	right	left	asynchronous
284.33778652828187	0.6898450781591237	keypress	right	right	synchronous
285.0288610588759	0.6910745305940509	keypress	right	left	asynchronous
285.6670492258854	0.6381881670095026	keypress	right	right	synchronous
286.30331327207386	0.6362640461884439	keypress	right	left	asynchronous
287.09981135232374	0.7964980802498758	keypress	right	right	synchronous
288.27183223795146	1.1720208856277168	keypress	right	left	asynchronous
288.9610460260883	0.6892137881368399	keypress	right	right	synchronous
290.0237828809768	1.0627368548884988	keypress	right	left	asynchronous
290.6087972172536	0.5850143362767994	keypress	right	right	synchronous
292.04255747096613	1.433760253712535	keypress	right	left	asynchronous
292.4143506651744	0.37179319420829415	keypress	right	right	synchronous
292.67913816217333	0.26478749699890614	keypress	right	left	asynchronous
292.89167987089604	0.2125417087227106	keypress	right	right	synchronous
293.5805064179003	0.6888265470042825	keypress	right	left	asynchronous
294.3764965161681	0.7959900982677937	keypress	right	right	synchronous
295.11884771101177	0.7423511948436499	keypress	right	left	asynchronous
295.96704853791744	0.8482008269056678	keypress	right	right	synchronous
296.4440577439964	0.4770092060789466	keypress	right	left	asynchronous
297.2413266371004	0.7972688931040466	keypress	right	right	synchronous
297.6148376669735	0.3735110298730433	keypress	right	left	asynchronous
298.039824354928	0.4249866879545152	keypress	right	right	synchronous
299.2039926322177	1.1641682772897184	keypress	right	left	asynchronous
299.9478611103259	0.7438684781081975	keypress	right	right	synchronous
301.2177403429523	1.2698792326264083	keypress	right	left	asynchronous
301.9080045511946	0.6902642082422972	keypress	right	right	synchronous
303.98153808293864	2.073533531744033	keypress	right	left	asynchronous
304.620889602229	0.6393515192903578	keypress	right	right	synchronous
305.46907163690776	0.8481820346787572	keypress	right	left	asynchronous
306.31959678418934	0.8505251472815871	keypress	right	right	synchronous
307.0674169291742	0.7478201449848711	keypress	right	left	asynchronous
307.44112855615094	0.37371162697672844	keypress	right	right	synchronous
308.2923718462698	0.8512432901188731	keypress	right	left	asynchronous
308.5048960382119	0.21252419194206595	keypress	right	right	synchronous
309.725011351984	1.2201153137721121	keypress	right	left	asynchronous
310.1521873031743	0.42717595119029284	keypress	right	right	synchronous
311.42937757307664	1.2771902699023485	keypress	right	left	asynchronous
312.38367600692436	0.9542984338477254	keypress	right	right	synchronous
313.55006692232564	1.16639091540128	keypress	right	left	asynchronous
314.8761864732951	1.3261195509694517	keypress	right	right	synchronous
316.30819927714765	1.4320128038525581	keypress	right	left	asynchronous
317.69168878206983	1.3834895049221814	keypress	right	right	synchronous
319.07036707596853	1.3786782938987017	keypress	right	left	asynchronous
319.92331591714174	0.8529488411732018	keypress	right	right	synchronous
320.76871363725513	0.8453977201133966	keypress	right	left	asynchronous
322.5730198859237	1.8043062486685812	keypress	right	right	synchronous
323.84628318296745	1.2732632970437407	keypress	right	left	asynchronous
325.4387844102457	1.5925012272782624	keypress	right	right	synchronous
326.39253515424207	0.953750743996352	keypress	right	left	asynchronous
328.4637778759934	2.0712427217513323	keypress	right	right	synchronous
329.204349657055	0.7405717810615897	keypress	right	left	asynchronous
330.21406966494396	1.0097200078889728	keypress	right	right	synchronous
331.27640966605395	1.0623400011099875	keypress	right	left	asynchronous
332.18116717925295	0.9047575131990016	keypress	right	right	synchronous
333.02878778707236	0.8476206078194082	keypress	right	left	asynchronous
333.7161497878842	0.6873620008118451	keypress	right	right	synchronous
334.77599356509745	1.0598437772132456	keypress	right	left	asynchronous
335.94120859587565	1.1652150307781994	keypress	right	right	synchronous
336.90031056897715	0.9591019731014967	keypress	right	left	asynchronous
337.9092337982729	1.0089232292957604	keypress	right	right	synchronous
338.43919510999694	0.5299613117240369	keypress	right	left	asynchronous
339.2902261172421	0.851031007245183	keypress	right	right	synchronous
339.9784248569049	0.6881987396627665	keypress	right	left	asynchronous
340.5079962220043	0.5295713650994003	keypress	right	right	synchronous
341.3574882200919	0.8494919980876148	keypress	right	left	asynchronous
342.7374703362584	1.3799821161665022	keypress	right	right	synchronous
344.22341221012175	1.4859418738633394	keypress	right	left	asynchronous
344.96806774288416	0.7446555327624083	keypress	right	right	synchronous
345.866769424174	0.8987016812898219	keypress	right	left	asynchronous
346.60850311117247	0.7417336869984865	keypress	right	right	synchronous
347.50773619301617	0.899233081843704	keypress	right	left	asynchronous
348.1435266379267	0.6357904449105263	keypress	right	right	synchronous
349.8941937838681	1.7506671459414065	keypress	right	left	asynchronous
351.4340459862724	1.5398522024042904	keypress	right	right	synchronous
353.23724684491754	1.8032008586451411	keypress	right	left	asynchronous
353.9800439160317	0.7427970711141825	keypress	right	right	synchronous
354.5112580573186	0.5312141412869096	keypress	right	left	asynchronous
355.5712100430392	1.059951985720545	keypress	right	right	synchronous
356.5283305309713	0.9571204879321158	keypress	right	left	asynchronous
357.11076235212386	0.5824318211525679	keypress	right	right	synchronous
358.85548814898357	1.7447257968597114	keypress	right	left	asynchronous
359.8108935649507	0.9554054159671068	keypress	right	right	synchronous
361.08501332998276	1.2741197650320828	keypress	right	left	asynchronous
361.72203900432214	0.6370256743393838	keypress	right	right	synchronous
362.1973107950762	0.47527179075405	keypress	right	left	asynchronous
362.62359216297045	0.4262813678942621	keypress	right	right	synchronous
363.5749520990066	0.9513599360361695	keypress	right	left	asynchronous
364.31752891326323	0.7425768142566085	keypress	right	right	synchronous
365.59089649515226	1.2733675818890333	keypress	right	left	asynchronous
366.38791050203145	0.7970140068791807	keypress	right	right	synchronous
367.60970170330256	1.2217912012711167	keypress	right	left	asynchronous
368.4566583991982	0.846956695895642	keypress	right	right	synchronous
369.2522530253045	0.7955946261063218	keypress	right	left	asynchronous
370.15445425128564	0.9022012259811163	keypress	right	right	synchronous
371.10960032604635	0.9551460747607052	keypress	right	left	asynchronous
371.5319993980229	0.4223990719765425	keypress	right	right	synchronous
372.0620095413178	0.5300101432949305	keypress	right	left	asynchronous
372.3254849691875	0.26347542786970735	keypress	right	right	synchronous
372.75174517929554	0.42626021010801196	keypress	right	left	asynchronous
373.4399236771278	0.6881784978322685	keypress	right	right	synchronous
373.59923007013276	0.15930639300495386	keypress	right	left	asynchronous
373.81248532328755	0.21325525315478444	keypress	right	right	synchronous
374.3958258219063	0.5833404986187816	keypress	right	left	asynchronous
374.55568392015994	0.15985809825360775	keypress	right	right	synchronous
375.1932025332935	0.6375186131335795	keypress	right	left	asynchronous
375.51338407816365	0.32018154487013817	keypress	right	right	synchronous
376.9439697912894	1.4305857131257653	keypress	right	left	asynchronous
377.42341729300097	0.4794475017115474	keypress	right	right	synchronous
378.3259922862053	0.9025749932043254	keypress	right	left	asynchronous
379.0176327661611	0.6916404799558222	keypress	right	right	synchronous
380.1841850471683	1.1665522810071707	keypress	right	left	asynchronous
381.29948085313663	1.1152958059683442	keypress	right	right	synchronous
382.41454692790285	1.1150660747662187	keypress	right	left	asynchronous
382.8918079729192	0.47726104501634836	keypress	right	right	synchronous
383.15862308302894	0.26681511010974646	keypress	right	left	asynchronous
383.5834928872064	0.42486980417743325	keypress	right	right	synchronous
383.7965953028761	0.21310241566970944	keypress	right	left	asynchronous
384.1651447881013	0.36854948522523046	keypress	right	right	synchronous
384.4317966331728	0.2666518450714648	keypress	right	left	asynchronous
385.49528973829	1.0634931051172316	keypress	right	right	synchronous
385.76126096211374	0.2659712238237262	keypress	right	left	asynchronous
386.82347129192203	1.0622103298082948	keypress	right	right	synchronous
387.7787183262408	0.9552470343187451	keypress	right	left	asynchronous
389.1077240752056	1.3290057489648461	keypress	right	right	synchronous
390.3264409569092	1.2187168817035854	keypress	right	left	asynchronous
391.7031909232028	1.3767499662935734	keypress	right	right	synchronous
392.7132573602721	1.0100664370693266	keypress	right	left	asynchronous
396.0049132211134	3.2916558608412743	keypress	right	right	synchronous
396.3779969611205	0.3730837400071323	keypress	right	left	asynchronous
396.6438888441771	0.2658918830566108	keypress	right	right	synchronous
397.12399810226634	0.48010925808921456	keypress	right	left	asynchronous
398.07940892409533	0.9554108218289912	keypress	right	right	synchronous
398.8748219353147	0.7954130112193525	keypress	right	left	asynchronous
400.2547073410824	1.379885405767709	keypress	right	right	synchronous
400.7333624539897	0.47865511290729046	keypress	right	left	asynchronous
401.42502834415063	0.691665890160948	keypress	right	right	synchronous
401.7965127020143	0.3714843578636646	keypress	right	left	asynchronous
402.5417924360372	0.7452797340229154	keypress	right	right	synchronous
402.91309609031305	0.37130365427583456	keypress	right	left	asynchronous
404.07865424919873	1.1655581588856876	keypress	right	right	synchronous
404.87377578392625	0.7951215347275138	keypress	right	left	asynchronous
405.98784713214263	1.1140713482163846	keypress	right	right	synchronous
406.99331744294614	1.0054703108035028	keypress	right	left	asynchronous
407.9478862253018	0.9545687823556364	keypress	right	right	synchronous
409.01888098102063	1.070994755718857	keypress	right	left	asynchronous
409.97588921617717	0.9570082351565361	keypress	right	right	synchronous
410.93134088488296	0.9554516687057912	keypress	right	left	asynchronous
411.8897141921334	0.9583733072504401	keypress	right	right	synchronous
412.9499232242815	1.0602090321481228	keypress	right	left	asynchronous
413.9075544620864	0.9576312378048897	keypress	right	right	synchronous
414.8145225648768	0.9069681027904153	keypress	right	left	asynchronous
416.1894452101551	1.374922645278275	keypress	right	right	synchronous
417.992692372296	1.8032471621409059	keypress	right	left	asynchronous
418.5246423808858	0.5319500085897744	keypress	right	right	synchronous
418.89621445396915	0.3715720730833709	keypress	right	left	asynchronous
419.5343379001133	0.6381234461441636	keypress	right	right	synchronous
419.74636293388903	0.21202503377571702	keypress	right	left	asynchronous
420.32956979610026	0.5832068622112274	keypress	right	right	synchronous
421.44019174203277	1.1106219459325075	keypress	right	left	asynchronous
422.2349978443235	0.7948061022907495	keypress	right	right	synchronous
423.0874060750939	0.8524082307703793	keypress	right	left	asynchronous
423.93541192403063	0.8480058489367366	keypress	right	right	synchronous
425.47182815521955	1.5364162311889231	keypress	right	left	asynchronous
427.38023124309257	1.9084030878730118	keypress	right	right	synchronous
429.07853748230264	1.6983062392100692	keypress	right	left	asynchronous
430.82797731412575	1.7494398318231106	keypress	right	right	synchronous
431.19962950097397	0.3716521868482232	keypress	right	left	asynchronous
431.6252425289713	0.42561302799731493	keypress	right	right	synchronous
433.0077385720797	1.3824960431084037	keypress	right	left	asynchronous
433.58989652525634	0.5821579531766474	keypress	right	right	synchronous
434.3327435422689	0.7428470170125365	keypress	right	left	asynchronous
435.0213221232407	0.6885785809718072	keypress	right	right	synchronous
435.8173260060139	0.7960038827732205	keypress	right	left	asynchronous
436.7173737823032	0.9000477762892842	keypress	right	right	synchronous
438.63520045997575	1.917826677672565	keypress	right	left	asynchronous
441.12943167611957	2.4942312161438167	keypress	right	right	synchronous
443.2470546900295	2.117623013909906	keypress	right	left	asynchronous
444.1480728662573	0.901018176227808	keypress	right	right	synchronous
445.58536774804816	1.4372948817908764	keypress	right	left	asynchronous
446.4883140763268	0.902946328278631	keypress	right	right	synchronous
447.76558386720717	1.277269790880382	keypress	right	left	asynchronous
448.613337314222	0.8477534470148385	keypress	right	right	synchronous
449.46371747832745	0.8503801641054451	keypress	right	left	asynchronous
450.63268553325906	1.1689680549316108	keypress	right	right	synchronous
452.383761534933	1.7510760016739368	keypress	right	left	asynchronous
453.7068829042837	1.3231213693507016	keypress	right	right	synchronous
455.4017775133252	1.694894609041512	keypress	right	left	asynchronous
456.19952488690615	0.7977473735809326	keypress	right	right	synchronous
456.6758973360993	0.4763724491931498	keypress	right	left	asynchronous
458.8457992821932	2.169901946093887	keypress	right	right	synchronous
459.7482447163202	0.902445434127003	keypress	right	left	asynchronous
460.17517065117136	0.4269259348511696	keypress	right	right	synchronous
461.23872975306585	1.0635591018944979	keypress	right	left	asynchronous
462.40347287012264	1.164743117056787	keypress	right	right	synchronous
463.25511305825785	0.8516401881352067	keypress	right	left	asynchronous
464.4250715691596	1.169958510901779	keypress	right	right	synchronous
465.5902557419613	1.1651841728016734	keypress	right	left	asynchronous
466.33264723513275	0.7423914931714535	keypress	right	right	synchronous
467.0235291970894	0.6908819619566202	keypress	right	left	asynchronous
467.9791800333187	0.9556508362293243	keypress	right	right	synchronous
469.996642166283	2.0174621329642832	keypress	right	left	asynchronous
471.26665733288974	1.270015166606754	keypress	right	right	synchronous
473.0685524321161	1.8018950992263854	keypress	right	left	asynchronous
474.820267111063	1.7517146789468825	keypress	right	right	synchronous
477.05155899515375	2.2312918840907514	keypress	right	left	asynchronous
477.5346394791268	0.4830804839730263	keypress	right	right	synchronous
477.69347431417555	0.15883483504876494	keypress	right	left	asynchronous
478.16907151415944	0.4755971999838948	keypress	right	right	synchronous
478.43373950431123	0.26466799015179276	keypress	right	left	asynchronous
479.3892009202391	0.9554614159278572	keypress	right	right	synchronous
480.0784149579704	0.6892140377312899	keypress	right	left	asynchronous
487.92613369598985	7.847718738019466	keypress	right	right	synchronous
488.08670701505616	0.1605733190663159	keypress	right	left	asynchronous
488.83177611231804	0.7450690972618759	keypress	right	right	synchronous
490.0000547352247	1.168278622906655	keypress	right	left	asynchronous
491.4858525232412	1.485797788016498	keypress	right	right	synchronous
492.33555570198223	0.8497031787410378	keypress	right	left	asynchronous
493.50372483208776	1.1681691301055253	keypress	right	right	synchronous
493.82194784190506	0.3182230098173022	keypress	right	left	asynchronous
494.99090390931815	1.1689560674130917	keypress	right	right	synchronous
495.4149491842836	0.42404527496546507	keypress	right	left	asynchronous
496.3730562571436	0.9581070728600025	keypress	right	right	synchronous
498.1750253601931	1.8019691030494869	keypress	right	left	asynchronous
499.23641652893275	1.0613911687396467	keypress	right	right	synchronous
500.61317942105234	1.3767628921195865	keypress	right	left	asynchronous
502.1491446932778	1.5359652722254395	keypress	right	right	synchronous
503.6320018619299	1.4828571686521173	keypress	right	left	asynchronous
505.17116463696584	1.5391627750359476	keypress	right	right	synchronous
506.6556065250188	1.4844418880529702	keypress	right	left	asynchronous
508.09783048322424	1.4422239582054317	keypress	right	right	synchronous
510.0095960269682	1.911765543743968	keypress	right	left	asynchronous
511.4953841450624	1.4857881180942059	keypress	right	right	synchronous
512.0826727459207	0.5872886008583009	keypress	right	left	asynchronous
512.2953481851146	0.2126754391938448	keypress	right	right	synchronous
512.5620559048839	0.26670771976932883	keypress	right	left	asynchronous
513.785880885087	1.2238249802030623	keypress	right	right	synchronous
515.48504347587	1.6991625907830894	keypress	right	left	asynchronous
516.0700761992484	0.5850327233783901	keypress	right	right	synchronous
517.3425265182741	1.2724503190256655	keypress	right	left	asynchronous
519.0379802649841	1.6954537467099726	keypress	right	right	synchronous
520.7375405742787	1.6995603092946112	keypress	right	left	asynchronous
523.5461236941628	2.8085831198841333	keypress	right	right	synchronous
526.9968002592213	3.4506765650585294	keypress	right	left	asynchronous
527.950454778038	0.9536545188166201	keypress	right	right	synchronous
529.1167230680585	1.1662682900205255	keypress	right	left	asynchronous
530.018676972948	0.901953904889524	keypress	right	right	synchronous
531.0786229530349	1.0599459800869226	keypress	right	left	asynchronous
532.0340322502889	0.9554092972539365	keypress	right	right	synchronous
533.2018322539516	1.1678000036627054	keypress	right	left	asynchronous
534.2616157769226	1.0597835229709744	keypress	right	right	synchronous
535.4272374170832	1.1656216401606798	keypress	right	left	asynchronous
537.3421485200524	1.9149111029691994	keypress	right	right	synchronous
540.2030370631255	2.860888543073088	keypress	right	left	asynchronous
541.2107851603068	1.0077480971813202	keypress	right	right	synchronous
542.3265245449729	1.1157393846660852	keypress	right	left	asynchronous
545.4556978042237	3.1291732592508197	keypress	right	right	synchronous
545.7737080170773	0.3180102128535509	keypress	right	left	asynchronous
547.5851424848661	1.8114344677887857	keypress	right	right	synchronous
551.7229067729786	4.137764288112521	keypress	right	left	asynchronous
554.8029153998941	3.0800086269155145	keypress	right	right	synchronous
555.9149358631112	1.1120204632170498	keypress	right	left	asynchronous
556.8711995510384	0.9562636879272759	keypress	right	right	synchronous
558.1449524383061	1.2737528872676194	keypress	right	left	asynchronous
561.0634332089685	2.918480770662427	keypress	right	right	synchronous
562.2252820190042	1.1618488100357354	keypress	right	left	asynchronous
563.2306365510449	1.0053545320406556	keypress	right	right	synchronous
566.5196629022248	3.2890263511799276	keypress	right	left	asynchronous
566.9426976311952	0.42303472897037864	keypress	right	right	synchronous
567.743704887107	0.8010072559118271	keypress	right	left	asynchronous
569.9206003560685	2.1768954689614475	keypress	right	right	synchronous
573.627558704	3.7069583479315042	keypress	right	left	asynchronous
574.2643661219627	0.6368074179627001	keypress	right	right	synchronous
574.8493620832451	0.5849959612824023	keypress	right	left	asynchronous
576.4425144949928	1.5931524117477238	keypress	right	right	synchronous
577.8733938322403	1.430879337247461	keypress	right	left	asynchronous
580.0428618909791	2.1694680587388575	keypress	right	right	synchronous
582.2186913252808	2.175829434301704	keypress	right	left	asynchronous
583.1199411330745	0.901249807793647	keypress	right	right	synchronous
584.5546218999662	1.434680766891688	keypress	right	left	asynchronous
586.0373752531596	1.4827533531934023	keypress	right	right	synchronous
587.1032177610323	1.0658425078727305	keypress	right	left	asynchronous
587.8456089380197	0.7423911769874394	keypress	right	right	synchronous
588.6444395370781	0.7988305990584195	keypress	right	left	asynchronous
591.3559131631628	2.7114736260846257	keypress	right	right	synchronous
592.202751156874	0.8468379937112331	keypress	right	left	asynchronous
593.0016108718701	0.7988597149960697	keypress	right	right	synchronous
593.9551132121123	0.9535023402422667	keypress	right	left	asynchronous
594.8036842392758	0.8485710271634161	keypress	right	right	synchronous
595.9214126891457	1.117728449869901	keypress	right	left	asynchronous
596.6627278919332	0.7413152027875185	keypress	right	right	synchronous
599.3717987579294	2.709070865996182	keypress	right	left	asynchronous
599.7980410018936	n/a	keypress	right	right	synchronous
600.0094223762862	n/a	end_rivalry	right	n/a	n/a
