onset	duration	trial	sync_side	key	dominant
0.0	n/a	start_rivalry	left	n/a	n/a
2.9204345787875354	n/a	keypress	left	right	asynchronous
5.355699589941651	2.435265011154115	keypress	left	left	synchronous
7.267140354961157	1.9114407650195062	keypress	left	right	asynchronous
9.336543120909482	2.0694027659483254	keypress	left	left	synchronous
11.562828165013343	2.226285044103861	keypress	left	right	asynchronous
13.897324780933559	2.334496615920216	keypress	left	left	synchronous
16.284580613020808	2.3872558320872486	keypress	left	right	asynchronous
18.669189835898578	2.3846092228777707	keypress	left	left	synchronous
23.492491670884192	4.823301834985614	keypress	left	right	asynchronous
25.82601423189044	2.333522561006248	keypress	left	left	synchronous
27.896897019818425	2.070882787927985	keypress	left	right	asynchronous
32.13797587715089	4.241078857332468	keypress	left	left	synchronous
35.53553277114406	3.397556893993169	keypress	left	right	asynchronous
38.03343917708844	2.497906405944377	keypress	left	left	synchronous
41.5383068760857	3.504867698997259	keypress	left	right	asynchronous
42.97219818504527	1.4338913089595735	keypress	left	left	synchronous
44.72297660401091	1.7507784189656377	keypress	left	right	asynchronous
45.46790332486853	0.7449267208576202	keypress	left	left	synchronous
47.375337653793395	1.9074343289248645	keypress	left	right	asynchronous
48.806929634884	1.4315919810906053	keypress	left	left	synchronous
51.45910148695111	2.652171852067113	keypress	left	right	asynchronous
53.160320376977324	1.7012188900262117	keypress	left	left	synchronous
57.62230951804668	4.461989141069353	keypress	left	right	asynchronous
59.91023547993973	2.287925961893052	keypress	left	left	synchronous
61.71312080183998	1.8028853219002485	keypress	left	right	asynchronous
64.62738407589495	2.9142632740549743	keypress	left	left	synchronous
66.79990960797295	2.172525532077998	keypress	left	right	asynchronous
68.75896177720279	1.9590521692298353	keypress	left	left	synchronous
71.37125660618767	2.6122948289848864	keypress	left	right	asynchronous
74.39177977200598	3.020523165818304	keypress	left	left	synchronous
76.62128801085055	2.2295082388445735	keypress	left	right	asynchronous
78.85292081581429	2.2316328049637377	keypress	left	left	synchronous
82.88883341988549	4.0359126040712	keypress	left	right	asynchronous
85.2223553401418	2.3335219202563167	keypress	left	left	synchronous
89.82775939721614	4.605404057074338	keypress	left	right	asynchronous
92.68842323916033	2.860663841944188	keypress	left	left	synchronous
95.50164821278304	2.8132249736227095	keypress	left	right	asynchronous
98.41618711687624	2.914538904093206	keypress	left	left	synchronous
104.41254608007148	5.9963589631952345	keypress	left	right	asynchronous
107.4946669167839	3.08212083671242	keypress	left	left	synchronous
109.50769239896908	2.013025482185185	keypress	left	right	asynchronous
111.94954455504194	2.441852156072855	keypress	left	left	synchronous
116.7787218010053	4.829177245963365	keypress	left	right	asynchronous
119.95659292023629	3.1778711192309856	keypress	left	left	synchronous
122.39693735307083	2.440344432834536	keypress	left	right	asynchronous
126.42586830211803	4.028930949047208	keypress	left	left	synchronous
129.18547547608614	2.7596071739681065	keypress	left	right	asynchronous
132.73976549087092	3.554290014784783	keypress	left	left	synchronous
135.44760314421728	2.7078376533463597	keypress	left	right	asynchronous
137.35827942891046	1.9106762846931815	keypress	left	left	synchronous
142.18845464009792	4.830175211187452	keypress	left	right	asynchronous
144.73439879296347	2.545944152865559	keypress	left	left	synchronous
147.07414706703275	2.3397482740692794	keypress	left	right	asynchronous
149.35457058623433	2.2804235192015767	keypress	left	left	synchronous
152.8540167780593	3.4994461918249726	keypress	left	right	asynchronous
155.24229915998876	2.388282381929457	keypress	left	left	synchronous
157.0986160878092	1.856316927820444	keypress	left	right	asynchronous
160.22764616506174	3.129030077252537	keypress	left	left	synchronous
164.9491318659857	4.7214857009239495	keypress	left	right	asynchronous
169.62087824800983	4.671746382024139	keypress	left	left	synchronous
176.04944712016732	6.428568872157484	keypress	left	right	asynchronous
180.40430048201233	4.3548533618450165	keypress	left	left	synchronous
184.00700360396877	3.602703121956438	keypress	left	right	asynchronous
186.13033743202686	2.123333828058094	keypress	left	left	synchronous
190.00507859094068	3.874741158913821	keypress	left	right	asynchronous
193.1365059898235	3.1314273988828063	keypress	left	left	synchronous
195.57811137102544	2.4416053812019527	keypress	left	right	asynchronous
198.28318556398153	2.70507419295609	keypress	left	left	synchronous
206.4543281509541	8.171142586972564	keypress	left	right	asynchronous
210.69549202220514	4.241163871251047	keypress	left	left	synchronous
213.72489557182416	3.029403549619019	keypress	left	right	asynchronous
216.4279653527774	2.7030697809532285	keypress	left	left	synchronous
219.18133662594482	2.7533712731674314	keypress	left	right	asynchronous
222.208789634984	3.0274530090391636	keypress	left	left	synchronous
225.07521094195545	2.8664213069714606	keypress	left	right	asynchronous
227.35910447314382	2.283893531188369	keypress	left	left	synchronous
230.91400866396725	3.554904190823436	keypress	left	right	asynchronous
233.56840201094747	2.654393346980214	keypress	left	left	synchronous
239.82820948399603	6.259807473048568	keypress	left	right	asynchronous
242.48141996795312	2.653210483957082	keypress	left	left	synchronous
246.085980551783	3.6045605838298798	keypress	left	right	asynchronous
248.05148090282455	1.9655003510415554	keypress	left	left	synchronous
252.45021946216002	4.39873855933547	keypress	left	right	asynchronous
254.47063827514648	2.0204188129864633	keypress	left	left	synchronous
256.64366525877267	2.173026983626187	keypress	left	right	asynchronous
258.8163849040866	2.1727196453139186	keypress	left	left	synchronous
262.0592100871727	3.2428251830860972	keypress	left	right	asynchronous
265.0302498098463	2.971039722673595	keypress	left	left	synchronous
268.95569830108434	3.9254484912380576	keypress	left	right	asynchronous
271.7679163957946	2.8122180947102606	keypress	left	left	synchronous
275.2148209349252	3.446904539130628	keypress	left	right	asynchronous
277.38806284498423	2.173241910059005	keypress	left	left	synchronous
279.71588189620525	2.327819051221013	keypress	left	right	asynchronous
283.1098579391837	3.3939760429784656	keypress	left	left	synchronous
287.56235851021484	4.452500571031123	keypress	left	right	asynchronous
289.4735452448949	1.9111867346800864	keypress	left	left	synchronous
293.13646615389735	3.6629209090024233	keypress	left	right	asynchronous
297.90754910418764	4.7710829502902925	keypress	left	left	synchronous
303.31412373203784	5.406574627850205	keypress	left	right	asynchronous
306.9259904110804	3.6118666790425777	keypress	left	left	synchronous
308.8370929020457	1.911102490965277	keypress	left	right	asynchronous
311.2799763879739	2.442883485928178	keypress	left	left	synchronous
315.1977667841129	3.9177903961390257	keypress	left	right	asynchronous
318.5932955830358	3.3955287989228964	keypress	left	left	synchronous
324.6819848199375	6.0886892369017005	keypress	left	right	asynchronous
328.02090033795685	3.3389155180193484	keypress	left	left	synchronous
331.3109212340787	3.2900208961218596	keypress	left	right	asynchronous
333.3294449830428	2.0185237489640713	keypress	left	left	synchronous
335.5042336448096	2.1747886617667973	keypress	left	right	asynchronous
337.89030730118975	2.3860736563801765	keypress	left	left	synchronous
340.9680070220493	3.0776997208595276	keypress	left	right	asynchronous
343.14204127015546	2.1740342481061816	keypress	left	left	synchronous
346.21540479920805	3.0733635290525854	keypress	left	right	asynchronous
349.931204025168	3.715799225959927	keypress	left	left	synchronous
353.69209003122523	3.7608860060572624	keypress	left	right	asynchronous
356.9814880457707	3.2893980145454407	keypress	left	left	synchronous
359.7378606358543	2.756372590083629	keypress	left	right	asynchronous
363.2360400701873	3.4981794343329966	keypress	left	left	synchronous
365.3607675121166	2.1247274419292808	keypress	left	right	asynchronous
368.96358291618526	3.6028154040686786	keypress	left	left	synchronous
374.1507831751369	5.187200258951634	keypress	left	right	asynchronous
378.60174089390785	4.450957718770951	keypress	left	left	synchronous
381.99801280302927	3.396271909121424	keypress	left	right	asynchronous
384.5958279040642	2.5978151010349393	keypress	left	left	synchronous
387.9333381149918	3.337510210927576	keypress	left	right	asynchronous
390.63814553711563	2.7048074221238494	keypress	left	left	synchronous
393.55293525382876	2.9147897167131305	keypress	left	right	asynchronous
396.63320263987407	3.080267386045307	keypress	left	left	synchronous
400.4540315079503	3.8208288680762053	keypress	left	right	asynchronous
402.41666176496074	1.96263025701046	keypress	left	left	synchronous
405.7543475921266	3.337685827165842	keypress	left	right	asynchronous
409.7343358118087	3.9799882196821272	keypress	left	left	synchronous
416.52228180412203	6.787945992313325	keypress	left	right	asynchronous
419.0686516822316	2.5463698781095445	keypress	left	left	synchronous
421.07989676995203	2.0112450877204537	keypress	left	right	asynchronous
424.0550750689581	2.9751782990060747	keypress	left	left	synchronous
426.6069433721714	2.5518683032132685	keypress	left	right	asynchronous
430.21177849918604	3.604835127014667	keypress	left	left	synchronous
435.15243699681014	4.940658497624099	keypress	left	right	asynchronous
438.4986891099252	3.3462521131150424	keypress	left	left	synchronous
442.57518551591784	4.076496405992657	keypress	left	right	asynchronous
447.0279834740795	4.452797958161682	keypress	left	left	synchronous
450.5279358890839	3.4999524150043726	keypress	left	right	asynchronous
451.9581504650414	1.430214575957507	keypress	left	left	synchronous
455.03039071988314	3.072240254841745	keypress	left	right	asynchronous
457.5308999437839	2.5005092239007354	keypress	left	left	synchronous
460.294299390167	2.7633994463831186	keypress	left	right	asynchronous
462.7872899998911	2.4929906097240746	keypress	left	left	synchronous
468.67407059203833	5.886780592147261	keypress	left	right	asynchronous
472.3389746597968	3.6649040677584708	keypress	left	left	synchronous
478.70035908417776	6.361384424380958	keypress	left	right	asynchronous
483.42447367403656	4.7241145898588	keypress	left	left	synchronous
488.72336713504046	5.2988934610039	keypress	left	right	asynchronous
495.99358586315066	7.270218728110194	keypress	left	left	synchronous
501.09411259694025	5.100526733789593	keypress	left	right	asynchronous
503.4312030081637	2.337090411223471	keypress	left	left	synchronous
505.8206533230841	2.3894503149203956	keypress	left	right	asynchronous
508.4291857019998	2.6085323789156973	keypress	left	left	synchronous
510.76233532000333	2.3331496180035174	keypress	left	right	asynchronous
515.0581248430535	4.295789523050189	keypress	left	left	synchronous
517.7656406508759	2.7075158078223467	keypress	left	right	asynchronous
521.4211530578323	3.6555124069564044	keypress	left	left	synchronous
527.102994653862	5.681841596029699	keypress	left	right	asynchronous
531.2936329920776	4.190638338215649	keypress	left	left	synchronous
535.749671945814	4.4560389537364244	keypress	left	right	asynchronous
538.5589178968221	2.8092459510080516	keypress	left	left	synchronous
540.5753375608474	2.0164196640253067	keypress	left	right	asynchronous
543.4360962142237	2.8607586533762515	keypress	left	left	synchronous
545.825992743019	2.3898965287953615	keypress	left	right	asynchronous
547.5749487672001	1.7489560241810977	keypress	left	left	synchronous
550.438521550037	2.8635727828368545	keypress	left	right	asynchronous
552.9351512049325	2.4966296548955142	keypress	left	left	synchronous
557.0162107609212	4.081059555988759	keypress	left	right	asynchronous
560.8926053121686	3.8763945512473583	keypress	left	left	synchronous
564.3929777718149	3.5003724596463144	keypress	left	right	asynchronous
569.5365180289373	5.143540257122368	keypress	left	left	synchronous
575.8523173909634	6.315799362026155	keypress	left	right	asynchronous
579.5089189251885	3.6566015342250466	keypress	left	left	synchronous
582.3753027659841	2.8663838407956064	keypress	left	right	asynchronous
584.7622831631452	2.3869803971610963	keypress	left	left	synchronous
587.2555676451884	2.4932844820432365	keypress	left	right	asynchronous
589.4825042327866	2.226936587598175	keypress	left	left	synchronous
592.5563446180895	3.0738403853029013	keypress	left	right	asynchronous
594.735646602232	2.179301984142512	keypress	left	left	synchronous
599.3496375288814	n/a	keypress	left	right	asynchronous
599.9842628818005	n/a	end_rivalry	left	n/a	n/a
