onset	duration	trial	sync_side	key	dominant
0.0	n/a	start_rivalry	left	n/a	n/a
7.968457605689764	n/a	keypress	left	right	asynchronous
12.4274246012792	4.458966995589435	keypress	left	left	synchronous
15.400322225876153	2.9728976245969534	keypress	left	right	asynchronous
16.779574112966657	1.3792518870905042	keypress	left	left	synchronous
19.172311581671238	2.3927374687045813	keypress	left	right	asynchronous
21.720045408234	2.5477338265627623	keypress	left	left	synchronous
24.104847598820925	2.3848021905869246	keypress	left	right	asynchronous
25.80299675837159	1.6981491595506668	keypress	left	left	synchronous
27.92512910440564	2.12213234603405	keypress	left	right	asynchronous
31.105567794293165	3.1804386898875237	keypress	left	left	synchronous
33.01497375871986	1.9094059644266963	keypress	left	right	asynchronous
34.39105946663767	1.3760857079178095	keypress	left	left	synchronous
41.93227177578956	7.541212309151888	keypress	left	right	asynchronous
51.84466544073075	9.912393664941192	keypress	left	left	synchronous
54.12166007608175	2.276994635351002	keypress	left	right	asynchronous
56.03177693299949	1.910116856917739	keypress	left	left	synchronous
58.047895358875394	2.016118425875902	keypress	left	right	asynchronous
82.23041230067611	24.182516941800714	keypress	left	left	synchronous
83.39378944505006	1.1633771443739533	keypress	left	right	asynchronous
85.62736640963703	2.233576964586973	keypress	left	left	synchronous
86.79304819833487	1.1656817886978388	keypress	left	right	asynchronous
99.10738919116557	12.314340992830694	keypress	left	left	synchronous
100.06294935941696	0.9555601682513952	keypress	left	right	asynchronous
130.77565022185445	30.712700862437487	keypress	left	left	synchronous
132.31668499298394	1.541034771129489	keypress	left	right	asynchronous
133.43021345231682	1.1135284593328834	keypress	left	left	synchronous
135.81821660976857	2.388003157451749	keypress	left	right	asynchronous
143.61907523404807	7.800858624279499	keypress	left	left	synchronous
145.79345991648734	2.1743846824392676	keypress	left	right	asynchronous
160.4259858056903	14.632525889202952	keypress	left	left	synchronous
161.9650564994663	1.5390706937760115	keypress	left	right	asynchronous
164.35196400806308	2.386907508596778	keypress	left	left	synchronous
166.15432983729988	1.8023658292368054	keypress	left	right	asynchronous
168.54256003629416	2.388230198994279	keypress	left	left	synchronous
169.2856670692563	0.7431070329621434	keypress	left	right	asynchronous
202.71687499061227	33.43120792135596	keypress	left	left	synchronous
203.13929590862244	0.42242091801017523	keypress	left	right	asynchronous
213.2674272581935	10.12813134957105	keypress	left	left	synchronous
214.69788173306733	1.4304544748738408	keypress	left	right	asynchronous
229.17992224451154	14.482040511444211	keypress	left	left	synchronous
230.77477109991014	1.5948488553985953	keypress	left	right	asynchronous
251.03511131368577	20.260340213775635	keypress	left	left	synchronous
253.73765712510794	2.702545811422169	keypress	left	right	asynchronous
255.0617953138426	1.3241381887346506	keypress	left	left	synchronous
260.887625801377	5.825830487534404	keypress	left	right	asynchronous
270.743721161969	9.856095360592008	keypress	left	left	synchronous
277.80125085730106	7.05752969533205	keypress	left	right	asynchronous
281.3511397289112	3.5498888716101646	keypress	left	left	synchronous
284.5851560411975	3.2340163122862577	keypress	left	right	asynchronous
285.8583146221936	1.2731585809960961	keypress	left	left	synchronous
290.42204452026635	4.563729898072779	keypress	left	right	asynchronous
291.5380525738001	1.116008053533733	keypress	left	left	synchronous
295.52635688334703	3.9883043095469475	keypress	left	right	asynchronous
298.49083418399096	2.964477300643921	keypress	left	left	synchronous
303.2142425691709	4.723408385179937	keypress	left	right	asynchronous
305.7080226512626	2.493780082091689	keypress	left	left	synchronous
308.05670381803066	2.348681166768074	keypress	left	right	asynchronous
310.81181043665856	2.755106618627906	keypress	left	left	synchronous
312.56038669496775	1.7485762583091855	keypress	left	right	asynchronous
314.25847118068486	1.6980844857171178	keypress	left	left	synchronous
316.853124210611	2.5946530299261212	keypress	left	right	asynchronous
318.176394819282	1.3232706086710095	keypress	left	left	synchronous
319.8235187344253	1.647123915143311	keypress	left	right	asynchronous
321.62980416882783	1.8062854344025254	keypress	left	left	synchronous
325.6658415570855	4.036037388257682	keypress	left	right	asynchronous
328.0503068314865	2.384465274401009	keypress	left	left	synchronous
332.6183926034719	4.568085771985352	keypress	left	right	asynchronous
334.4778235917911	1.8594309883192182	keypress	left	left	synchronous
340.6329167438671	6.155093152076006	keypress	left	right	asynchronous
342.9704979043454	2.337581160478294	keypress	left	left	synchronous
352.35977179091424	9.389273886568844	keypress	left	right	asynchronous
355.3763345098123	3.016562718898058	keypress	left	left	synchronous
359.29820559639484	3.9218710865825415	keypress	left	right	asynchronous
361.1548966150731	1.856691018678248	keypress	left	left	synchronous
369.22111776843667	8.066221153363585	keypress	left	right	asynchronous
370.39013022277504	1.1690124543383718	keypress	left	left	synchronous
373.46631630696356	3.076186084188521	keypress	left	right	asynchronous
376.4351742686704	2.968857961706817	keypress	left	left	synchronous
378.55967589840293	2.124501629732549	keypress	left	right	asynchronous
380.3671171134338	1.807441215030849	keypress	left	left	synchronous
383.6588559458032	3.2917388323694468	keypress	left	right	asynchronous
384.35137631744146	0.6925203716382384	keypress	left	left	synchronous
388.22066644206643	3.8692901246249676	keypress	left	right	asynchronous
389.38852811045945	1.1678616683930159	keypress	left	left	synchronous
391.8313549030572	2.4428267925977707	keypress	left	right	asynchronous
392.36496021412313	0.5336053110659122	keypress	left	left	synchronous
403.99487777240574	11.629917558282614	keypress	left	right	asynchronous
405.4826938845217	1.4878161121159792	keypress	left	left	synchronous
412.1676851324737	6.684991247951984	keypress	left	right	asynchronous
413.4922092054039	1.3245240729302168	keypress	left	left	synchronous
415.1916125686839	1.6994033632799983	keypress	left	right	asynchronous
417.6860457165167	2.4944331478327513	keypress	left	left	synchronous
421.2434258097783	3.5573800932615995	keypress	left	right	asynchronous
424.74124716967344	3.4978213598951697	keypress	left	left	synchronous
427.66797844320536	2.9267312735319138	keypress	left	right	asynchronous
430.2679390273988	2.599960584193468	keypress	left	left	synchronous
434.9906230112538	4.7226839838549495	keypress	left	right	asynchronous
436.1606456339359	1.1700226226821542	keypress	left	left	synchronous
438.7056318046525	2.5449861707165837	keypress	left	right	asynchronous
444.06599181797355	5.360360013321042	keypress	left	left	synchronous
447.03409965801984	2.9681078400462866	keypress	left	right	asynchronous
448.67737705167383	1.6432773936539888	keypress	left	left	synchronous
451.2757665971294	2.598389545455575	keypress	left	right	asynchronous
453.2891343170777	2.013367719948292	keypress	left	left	synchronous
454.4560144022107	1.166880085133016	keypress	left	right	asynchronous
455.6208033207804	1.164788918569684	keypress	left	left	synchronous
462.7368818707764	7.116078549996018	keypress	left	right	asynchronous
464.06367814168334	1.3267962709069252	keypress	left	left	synchronous
466.45395484846085	2.390276706777513	keypress	left	right	asynchronous
467.6237648744136	1.1698100259527564	keypress	left	left	synchronous
471.7133954446763	4.0896305702626705	keypress	left	right	asynchronous
473.3582414984703	1.6448460537940264	keypress	left	left	synchronous
482.6455697892234	9.287328290753067	keypress	left	right	asynchronous
500.68282084260136	18.037251053377986	keypress	left	left	synchronous
504.129189113155	3.4463682705536485	keypress	left	right	asynchronous
505.1360629852861	1.0068738721311092	keypress	left	left	synchronous
506.93781991302967	1.8017569277435541	keypress	left	right	asynchronous
508.0514357415959	1.1136158285662532	keypress	left	left	synchronous
512.1410621916875	4.0896264500916	keypress	left	right	asynchronous
513.5220206510276	1.380958459340036	keypress	left	left	synchronous
520.6350680403411	7.113047389313579	keypress	left	right	asynchronous
536.0631366409361	15.428068600594997	keypress	left	left	synchronous
536.8573563285172	0.7942196875810623	keypress	left	right	asynchronous
545.4482286171988	8.590872288681567	keypress	left	left	synchronous
546.2468736600131	0.7986450428143144	keypress	left	right	asynchronous
547.7335804691538	1.4867068091407418	keypress	left	left	synchronous
550.2261694772169	2.492589008063078	keypress	left	right	asynchronous
551.9764156807214	1.7502462035045028	keypress	left	left	synchronous
559.2340011671185	7.257585486397147	keypress	left	right	asynchronous
560.5089746359736	1.2749734688550234	keypress	left	left	synchronous
562.7946936488152	2.2857190128415823	keypress	left	right	asynchronous
563.855281853117	1.0605882043018937	keypress	left	left	synchronous
567.5675216941163	3.7122398409992456	keypress	left	right	asynchronous
569.1600572159514	1.5925355218350887	keypress	left	left	synchronous
570.70365038421	1.543593168258667	keypress	left	right	asynchronous
572.6096529336646	1.9060025494545698	keypress	left	left	synchronous
579.9776772139594	7.368024280294776	keypress	left	right	asynchronous
580.5093833077699	0.5317060938104987	keypress	left	left	synchronous
585.0762659311295	4.566882623359561	keypress	left	right	asynchronous
587.3574391761795	2.281173245050013	keypress	left	left	synchronous
589.2125898571685	1.855150680989027	keypress	left	right	asynchronous
591.1193488026038	1.9067589454352856	keypress	left	left	synchronous
593.6127292197198	2.4933804171159863	keypress	left	right	asynchronous
594.6221627220511	n/a	keypress	left	left	synchronous
599.9863622216508	n/a	end_rivalry	left	n/a	n/a
