onset	duration	trial	sync_side	key	dominant
0.0	n/a	start_rivalry	left	n/a	n/a
1.0106328218244016	n/a	keypress	left	right	asynchronous
2.1813925178721547	1.170759696047753	keypress	left	left	synchronous
3.720790596678853	1.5393980788066983	keypress	left	right	asynchronous
6.423466830980033	2.7026762343011796	keypress	left	left	synchronous
7.648961539845914	1.225494708865881	keypress	left	right	asynchronous
12.366739282850176	4.7177777430042624	keypress	left	left	synchronous
14.860773422755301	2.494034139905125	keypress	left	right	asynchronous
17.25089161703363	2.3901181942783296	keypress	left	left	synchronous
19.324447619728744	2.0735560026951134	keypress	left	right	asynchronous
22.87157990364358	3.5471322839148343	keypress	left	left	synchronous
24.882832986768335	2.011253083124757	keypress	left	right	asynchronous
27.10812180303037	2.2252888162620366	keypress	left	left	synchronous
29.548500869888812	2.4403790668584406	keypress	left	right	asynchronous
34.01156644197181	4.463065572082996	keypress	left	left	synchronous
38.51615825807676	4.5045918161049485	keypress	left	right	asynchronous
40.856278381776065	2.3401201236993074	keypress	left	left	synchronous
42.02079534903169	1.1645169672556221	keypress	left	right	asynchronous
44.088921485003084	2.068126135971397	keypress	left	left	synchronous
47.16433183290064	3.0754103478975594	keypress	left	right	asynchronous
48.38238132093102	1.218049488030374	keypress	left	left	synchronous
48.965808626729995	0.5834273057989776	keypress	left	right	asynchronous
50.9805623749271	2.0147537481971085	keypress	left	left	synchronous
53.30874159978703	2.328179224859923	keypress	left	right	asynchronous
57.28985003195703	3.9811084321700037	keypress	left	left	synchronous
61.47906874772161	4.189218715764582	keypress	left	right	asynchronous
68.5316891646944	7.052620416972786	keypress	left	left	synchronous
70.75853521283716	2.226846048142761	keypress	left	right	asynchronous
74.47397859068587	3.7154433778487146	keypress	left	left	synchronous
76.69848418375477	2.2245055930688977	keypress	left	right	asynchronous
84.07027333509177	7.371789151336998	keypress	left	left	synchronous
87.30944331502542	3.2391699799336493	keypress	left	right	asynchronous
89.11166362278163	1.8022203077562153	keypress	left	left	synchronous
93.99150804290548	4.879844420123845	keypress	left	right	asynchronous
95.00117534166202	1.0096672987565398	keypress	left	left	synchronous
96.43205701978877	1.4308816781267524	keypress	left	right	asynchronous
98.5018405248411	2.069783505052328	keypress	left	left	synchronous
101.8901065448299	3.388266019988805	keypress	left	right	asynchronous
104.91428736364469	3.0241808188147843	keypress	left	left	synchronous
106.77093762764707	1.8566502640023828	keypress	left	right	asynchronous
111.4377472018823	4.666809574235231	keypress	left	left	synchronous
113.5652140500024	2.1274668481200933	keypress	left	right	asynchronous
118.39088557567447	4.825671525672078	keypress	left	left	synchronous
122.84275151276961	4.4518659370951355	keypress	left	right	asynchronous
130.8057663058862	7.963014793116599	keypress	left	left	synchronous
131.39023438468575	0.5844680787995458	keypress	left	right	asynchronous
135.52508277771994	4.13484839303419	keypress	left	left	synchronous
136.00291446689516	0.47783168917521834	keypress	left	right	asynchronous
138.23332013003528	2.230405663140118	keypress	left	left	synchronous
141.4671445027925	3.2338243727572262	keypress	left	right	asynchronous
144.0062846839428	2.5391401811502874	keypress	left	left	synchronous
146.28549110982567	2.279206425882876	keypress	left	right	asynchronous
150.00416731182486	3.7186762019991875	keypress	left	left	synchronous
151.3300572228618	1.3258899110369384	keypress	left	right	asynchronous
155.94310134276748	4.61304411990568	keypress	left	left	synchronous
163.42154577886686	7.47844443609938	keypress	left	right	asynchronous
165.92028060602024	2.4987348271533847	keypress	left	left	synchronous
168.04188265884295	2.121602052822709	keypress	left	right	asynchronous
169.84565291693434	1.8037702580913901	keypress	left	left	synchronous
171.28006586898118	1.4344129520468414	keypress	left	right	asynchronous
173.08592899283394	1.8058631238527596	keypress	left	left	synchronous
184.43755072308704	11.3516217302531	keypress	left	right	asynchronous
187.67345843696967	3.235907713882625	keypress	left	left	synchronous
198.53739486308768	10.863936426118016	keypress	left	right	asynchronous
200.8686147350818	2.331219871994108	keypress	left	left	synchronous
202.61281658383086	1.7442018487490714	keypress	left	right	asynchronous
203.72857099864632	1.1157544148154557	keypress	left	left	synchronous
205.05810196185485	1.3295309632085264	keypress	left	right	asynchronous
206.9686472127214	1.9105452508665621	keypress	left	left	synchronous
208.50563862267882	1.536991409957409	keypress	left	right	asynchronous
211.37459375569597	2.8689551330171525	keypress	left	left	synchronous
212.43671179004014	1.0621180343441665	keypress	left	right	asynchronous
214.77049960568547	2.333787815645337	keypress	left	left	synchronous
217.10567028587684	2.335170680191368	keypress	left	right	asynchronous
218.85575390188023	1.7500836160033941	keypress	left	left	synchronous
225.857253159862	7.001499257981777	keypress	left	right	asynchronous
226.2283612396568	0.3711080797947943	keypress	left	left	synchronous
229.25179514288902	3.023433903232217	keypress	left	right	asynchronous
235.09151615668088	5.839721013791859	keypress	left	left	synchronous
236.84254225576296	1.7510260990820825	keypress	left	right	asynchronous
240.08004164369777	3.237499387934804	keypress	left	left	synchronous
242.88778129871935	2.807739655021578	keypress	left	right	asynchronous
249.40733178006485	6.5195504813455045	keypress	left	left	synchronous
256.09073052275926	6.683398742694408	keypress	left	right	asynchronous
261.1333121997304	5.042581676971167	keypress	left	left	synchronous
262.40791170904413	1.2745995093137026	keypress	left	right	asynchronous
264.6337038986385	2.225792189594358	keypress	left	left	synchronous
266.119969422929	1.486265524290502	keypress	left	right	asynchronous
270.308960726019	4.188991303090006	keypress	left	left	synchronous
273.3854631180875	3.0765023920685053	keypress	left	right	asynchronous
275.98860152065754	2.603138402570039	keypress	left	left	synchronous
279.49071907578036	3.5021175551228225	keypress	left	right	asynchronous
281.08390232082456	1.5931832450442016	keypress	left	left	synchronous
282.5149189629592	1.4310166421346366	keypress	left	right	asynchronous
285.27426816895604	2.759349205996841	keypress	left	left	synchronous
289.4589494219981	4.184681253042072	keypress	left	right	asynchronous
292.21644618781283	2.7574967658147216	keypress	left	left	synchronous
301.6654741358943	9.449027948081493	keypress	left	right	asynchronous
303.5741517050192	1.9086775691248477	keypress	left	left	synchronous
305.48473385581747	1.910582150798291	keypress	left	right	asynchronous
310.53057795297354	5.045844097156078	keypress	left	left	synchronous
312.22526769991964	1.6946897469460964	keypress	left	right	asynchronous
316.14502946287394	3.9197617629542947	keypress	left	left	synchronous
316.9964075279422	0.8513780650682747	keypress	left	right	asynchronous
323.73275960283354	6.736352074891329	keypress	left	left	synchronous
328.3998833396472	4.667123736813664	keypress	left	right	asynchronous
330.57621381478384	2.1763304751366377	keypress	left	left	synchronous
332.7019203468226	2.1257065320387483	keypress	left	right	asynchronous
335.4628031090833	2.760882762260735	keypress	left	left	synchronous
341.30006733583286	5.837264226749539	keypress	left	right	asynchronous
347.2922433288768	5.992175993043929	keypress	left	left	synchronous
353.0745842070319	5.7823408781550825	keypress	left	right	asynchronous
358.38095281878486	5.306368611752987	keypress	left	left	synchronous
361.1937965936959	2.8128437749110162	keypress	left	right	asynchronous
363.1545469406992	1.9607503470033407	keypress	left	left	synchronous
364.7415936929174	1.587046752218157	keypress	left	right	asynchronous
367.3478385480121	2.606244855094701	keypress	left	left	synchronous
369.8981786570512	2.550340109039098	keypress	left	right	asynchronous
373.02664572000504	3.1284670629538596	keypress	left	left	synchronous
374.7267376896925	1.7000919696874917	keypress	left	right	asynchronous
377.0108654149808	2.284127725288272	keypress	left	left	synchronous
378.7052443358116	1.6943789208307862	keypress	left	right	asynchronous
380.83049052068964	2.1252461848780513	keypress	left	left	synchronous
383.3264554440975	2.4959649234078825	keypress	left	right	asynchronous
388.8452608017251	5.518805357627571	keypress	left	left	synchronous
390.5910731507465	1.7458123490214348	keypress	left	right	asynchronous
393.4530153479427	2.8619421971961856	keypress	left	left	synchronous
394.6766496808268	1.223634332884103	keypress	left	right	asynchronous
399.23992785066366	4.563278169836849	keypress	left	left	synchronous
400.30359252588823	1.0636646752245724	keypress	left	right	asynchronous
410.80819039884955	10.504597872961313	keypress	left	left	synchronous
413.9922967609018	3.184106362052262	keypress	left	right	asynchronous
417.07376788090914	3.081471120007336	keypress	left	left	synchronous
418.8241933886893	1.7504255077801645	keypress	left	right	asynchronous
422.53533259080723	3.71113920211792	keypress	left	left	synchronous
426.67440213868394	4.139069547876716	keypress	left	right	asynchronous
428.3191997190006	1.6447975803166628	keypress	left	left	synchronous
429.64245898881927	1.3232592698186636	keypress	left	right	asynchronous
433.830228949897	4.18776996107772	keypress	left	left	synchronous
436.214882676024	2.3846537261269987	keypress	left	right	asynchronous
437.9111144687049	1.6962317926809192	keypress	left	left	synchronous
438.9212332260795	1.0101187573745847	keypress	left	right	asynchronous
445.76984429592267	6.848611069843173	keypress	left	left	synchronous
448.2585103288293	2.4886660329066217	keypress	left	right	asynchronous
451.3910647300072	3.132554401177913	keypress	left	left	synchronous
454.1994555997662	2.808390869759023	keypress	left	right	asynchronous
455.685191181954	1.4857355821877718	keypress	left	left	synchronous
457.64695284189656	1.9617616599425673	keypress	left	right	asynchronous
459.66160490596667	2.0146520640701056	keypress	left	left	synchronous
462.0458025499247	2.384197643958032	keypress	left	right	asynchronous
465.65279647381976	3.606993923895061	keypress	left	left	synchronous
469.2594011747278	3.606604700908065	keypress	left	right	asynchronous
470.31924950378016	1.059848329052329	keypress	left	left	synchronous
471.9123413008638	1.5930917970836163	keypress	left	right	asynchronous
473.6104942257516	1.698152924887836	keypress	left	left	synchronous
475.73567573865876	2.1251815129071474	keypress	left	right	asynchronous
480.24475745484233	4.509081716183573	keypress	left	left	synchronous
480.9369504530914	0.6921929982490838	keypress	left	right	asynchronous
483.1668165177107	2.229866064619273	keypress	left	left	synchronous
484.813218486961	1.6464019692502916	keypress	left	right	asynchronous
487.2023165267892	2.389098039828241	keypress	left	left	synchronous
489.80129508674145	2.5989785599522293	keypress	left	right	asynchronous
493.7788165388629	3.9775214521214366	keypress	left	left	synchronous
496.0051319557242	2.2263154168613255	keypress	left	right	asynchronous
498.17557611782104	2.1704441620968282	keypress	left	left	synchronous
500.46081989165395	2.285243773832917	keypress	left	right	asynchronous
505.07398473564535	4.613164843991399	keypress	left	left	synchronous
508.26791087398306	3.1939261383377016	keypress	left	right	asynchronous
509.2755244169384	1.0076135429553688	keypress	left	left	synchronous
512.3532592779957	3.0777348610572517	keypress	left	right	asynchronous
513.629217906855	1.275958628859371	keypress	left	left	synchronous
517.8141157906502	4.184897883795202	keypress	left	right	asynchronous
519.8748496090993	2.06073381844908	keypress	left	left	synchronous
526.0806367788464	6.205787169747055	keypress	left	right	asynchronous
527.6186611456797	1.5380243668332696	keypress	left	left	synchronous
529.3215868389234	1.702925693243742	keypress	left	right	asynchronous
530.1180197969079	0.7964329579845071	keypress	left	left	synchronous
533.1454960848205	3.0274762879125774	keypress	left	right	asynchronous
533.7291574170813	0.5836613322608173	keypress	left	left	synchronous
534.8985743769445	1.169416959863156	keypress	left	right	asynchronous
537.8191211288795	2.920546751935035	keypress	left	left	synchronous
544.7697571036406	6.950635974761099	keypress	left	right	asynchronous
545.5107805267908	0.7410234231501818	keypress	left	left	synchronous
546.9398833597079	1.429102832917124	keypress	left	right	asynchronous
548.8982880180702	1.9584046583622694	keypress	left	left	synchronous
551.6048460220918	2.7065580040216446	keypress	left	right	asynchronous
554.8948962660506	3.290050243958831	keypress	left	left	synchronous
556.8045035740361	1.909607307985425	keypress	left	right	asynchronous
557.7074912567623	0.9029876827262342	keypress	left	left	synchronous
565.772054203786	8.06456294702366	keypress	left	right	asynchronous
569.7007681387477	3.9287139349617064	keypress	left	left	synchronous
571.5552164507098	1.8544483119621873	keypress	left	right	asynchronous
581.368899460882	9.813683010172099	keypress	left	left	synchronous
583.2788188420236	1.9099193811416626	keypress	left	right	asynchronous
585.6753510376438	2.396532195620239	keypress	left	left	synchronous
589.0708235707134	3.395472533069551	keypress	left	right	asynchronous
591.5600317758508	2.489208205137402	keypress	left	left	synchronous
594.7954828697257	3.2354510938748717	keypress	left	right	asynchronous
595.8583390209824	n/a	keypress	left	left	synchronous
599.989998281002	n/a	end_rivalry	left	n/a	n/a
