onset	duration	trial	sync_side	key	dominant
0.0	n/a	start_rivalry	right	n/a	n/a
2.1231645229272544	n/a	keypress	right	right	synchronous
3.9322121278382838	1.8090476049110293	keypress	right	left	asynchronous
7.436178417876363	3.503966290038079	keypress	right	right	synchronous
11.19873667275533	3.762558254878968	keypress	right	left	asynchronous
14.654352955054492	3.455616282299161	keypress	right	right	synchronous
16.408523951657116	1.7541709966026247	keypress	right	left	asynchronous
20.44186791870743	4.033343967050314	keypress	right	right	synchronous
23.82624270906672	3.3843747903592885	keypress	right	left	asynchronous
26.589432443957776	2.763189734891057	keypress	right	right	synchronous
30.143347612116486	3.55391516815871	keypress	right	left	asynchronous
36.35293227666989	6.209584664553404	keypress	right	right	synchronous
41.609135224018246	5.256202947348356	keypress	right	left	asynchronous
43.78561863489449	2.1764834108762443	keypress	right	right	synchronous
46.06855522189289	2.282936586998403	keypress	right	left	asynchronous
48.346536337863654	2.2779811159707606	keypress	right	right	synchronous
52.32068945700303	3.9741531191393733	keypress	right	left	asynchronous
54.5566245499067	2.2359350929036736	keypress	right	right	synchronous
59.33676743786782	4.780142887961119	keypress	right	left	asynchronous
65.33241206174716	5.995644623879343	keypress	right	right	synchronous
69.79394821589813	4.461536154150963	keypress	right	left	asynchronous
74.25076996395364	4.456821748055518	keypress	right	right	synchronous
75.79038960905746	1.5396196451038122	keypress	right	left	asynchronous
79.29651561565697	3.5061260065995157	keypress	right	right	synchronous
81.20665181986988	1.910136204212904	keypress	right	left	asynchronous
83.5451993397437	2.3385475198738277	keypress	right	right	synchronous
86.78481767093763	3.239618331193924	keypress	right	left	asynchronous
90.49854773283005	3.71373006189242	keypress	right	right	synchronous
95.81331934779882	5.314771614968777	keypress	right	left	asynchronous
100.58396096993238	4.770641622133553	keypress	right	right	synchronous
104.03944128705189	3.455480317119509	keypress	right	left	asynchronous
105.9508151197806	1.9113738327287138	keypress	right	right	synchronous
108.86217180686072	2.911356687080115	keypress	right	left	asynchronous
112.47540452796966	3.6132327211089432	keypress	right	right	synchronous
116.45311071909964	3.9777061911299825	keypress	right	left	asynchronous
122.2922211480327	5.839110428933054	keypress	right	right	synchronous
124.94411932583898	2.651898177806288	keypress	right	left	asynchronous
127.49188259383664	2.5477632679976523	keypress	right	right	synchronous
129.45650043105707	1.9646178372204304	keypress	right	left	asynchronous
131.57819544384256	2.1216950127854943	keypress	right	right	synchronous
132.16206220909953	0.5838667652569711	keypress	right	left	asynchronous
135.08690730668604	2.9248450975865126	keypress	right	right	synchronous
137.84405238181353	2.7571450751274824	keypress	right	left	asynchronous
140.23774960869923	2.393697226885706	keypress	right	right	synchronous
144.1191586717032	3.8814090630039573	keypress	right	left	asynchronous
147.7746988669969	3.6555401952937245	keypress	right	right	synchronous
149.68737230589613	1.912673438899219	keypress	right	left	asynchronous
152.87816255772486	3.19079025182873	keypress	right	right	synchronous
155.4780669719912	2.599904414266348	keypress	right	left	asynchronous
158.76983848400414	3.2917715120129287	keypress	right	right	synchronous
162.69091195287183	3.9210734688676894	keypress	right	left	asynchronous
169.5831097997725	6.892197846900672	keypress	right	right	synchronous
174.03653322393075	4.453423424158245	keypress	right	left	asynchronous
178.32881115190685	4.292277927976102	keypress	right	right	synchronous
182.10317091597244	3.7743597640655935	keypress	right	left	asynchronous
187.61818675370887	5.515015837736428	keypress	right	right	synchronous
193.24129827693105	5.623111523222178	keypress	right	left	asynchronous
196.74230963084847	3.50101135391742	keypress	right	right	synchronous
199.71517749177292	2.9728678609244525	keypress	right	left	asynchronous
205.07337387371808	5.358196381945163	keypress	right	right	synchronous
211.12489515170455	6.051521277986467	keypress	right	left	asynchronous
216.32960664574057	5.204711494036019	keypress	right	right	synchronous
218.71214503981173	2.3825383940711617	keypress	right	left	asynchronous
220.35522253299132	1.6430774931795895	keypress	right	right	synchronous
222.26383669395	1.9086141609586775	keypress	right	left	asynchronous
224.69910647301003	2.435269779060036	keypress	right	right	synchronous
229.15592951886356	4.456823045853525	keypress	right	left	asynchronous
232.07888482976705	2.9229553109034896	keypress	right	right	synchronous
235.05139910709113	2.9725142773240805	keypress	right	left	asynchronous
241.4725907286629	6.421191621571779	keypress	right	right	synchronous
246.92993420967832	5.457343481015414	keypress	right	left	asynchronous
252.4500046428293	5.520070433150977	keypress	right	right	synchronous
254.1477677640505	1.6977631212212145	keypress	right	left	asynchronous
256.58948080800474	2.4417130439542234	keypress	right	right	synchronous
259.6610745927319	3.071593784727156	keypress	right	left	asynchronous
262.42053029173985	2.759455699007958	keypress	right	right	synchronous
267.13635928183794	4.715828990098089	keypress	right	left	asynchronous
270.5859747538343	3.449615471996367	keypress	right	right	synchronous
273.18622577702627	2.6002510231919587	keypress	right	left	asynchronous
279.12617472279817	5.939948945771903	keypress	right	right	synchronous
281.40653226105496	2.280357538256794	keypress	right	left	asynchronous
284.84870575601235	3.4421734949573874	keypress	right	right	synchronous
288.1838921420276	3.335186386015266	keypress	right	left	asynchronous
291.63211443880573	3.4482222967781126	keypress	right	right	synchronous
297.09829194284976	5.466177504044026	keypress	right	left	asynchronous
303.24222498293966	6.143933040089905	keypress	right	right	synchronous
306.1100710579194	2.8678460749797523	keypress	right	left	asynchronous
310.6636132430285	4.553542185109109	keypress	right	right	synchronous
313.31384977372363	2.6502365306951106	keypress	right	left	asynchronous
318.3501321747899	5.0362824010662735	keypress	right	right	synchronous
320.95355597604066	2.603423801250756	keypress	right	left	asynchronous
325.0900519047864	4.136495928745717	keypress	right	right	synchronous
330.29166084108874	5.201608936302364	keypress	right	left	asynchronous
337.454806108959	7.163145267870277	keypress	right	right	synchronous
339.94996041897684	2.495154310017824	keypress	right	left	asynchronous
344.7288751457818	4.778914726804942	keypress	right	right	synchronous
349.40080222208053	4.6719270762987435	keypress	right	left	asynchronous
352.6924775741063	3.291675352025777	keypress	right	right	synchronous
354.7623322447762	2.0698546706698835	keypress	right	left	asynchronous
357.20150111895055	2.4391688741743565	keypress	right	right	synchronous
360.1234492100775	2.9219480911269784	keypress	right	left	asynchronous
363.5170731251128	3.3936239150352776	keypress	right	right	synchronous
367.02004797011614	3.5029748450033367	keypress	right	left	asynchronous
369.9339399719611	2.9138920018449426	keypress	right	right	synchronous
372.69422425795346	2.760284285992384	keypress	right	left	asynchronous
377.1533468477428	4.459122589789331	keypress	right	right	synchronous
381.9774356260896	4.824088778346777	keypress	right	left	asynchronous
385.47637602780014	3.49894040171057	keypress	right	right	synchronous
389.9308618158102	4.454485788010061	keypress	right	left	asynchronous
398.6231566728093	8.69229485699907	keypress	right	right	synchronous
401.1667310898192	2.5435744170099497	keypress	right	left	asynchronous
406.3666968056932	5.1999657158739865	keypress	right	right	synchronous
410.18406597385183	3.8173691681586206	keypress	right	left	asynchronous
414.8531213728711	4.669055399019271	keypress	right	right	synchronous
416.28343869699165	1.4303173241205513	keypress	right	left	asynchronous
422.17241951078176	5.888980813790113	keypress	right	right	synchronous
428.6999314390123	6.527511928230524	keypress	right	left	asynchronous
435.6923028808087	6.992371441796422	keypress	right	right	synchronous
437.7066914481111	2.014388567302376	keypress	right	left	asynchronous
439.5629936950281	1.8563022469170392	keypress	right	right	synchronous
442.21927409572527	2.656280400697142	keypress	right	left	asynchronous
445.5112123647705	3.291938269045204	keypress	right	right	synchronous
448.851555111818	3.3403427470475435	keypress	right	left	asynchronous
452.7304920167662	3.8789369049482048	keypress	right	right	synchronous
456.60425256798044	3.873760551214218	keypress	right	left	asynchronous
458.25309805572033	1.6488454877398908	keypress	right	right	synchronous
459.9504136410542	1.697315585333854	keypress	right	left	asynchronous
463.4511719751172	3.5007583340629935	keypress	right	right	synchronous
465.7279552188702	2.276783243753016	keypress	right	left	asynchronous
472.09322716109455	6.3652719422243536	keypress	right	right	synchronous
476.71184573788196	4.618618576787412	keypress	right	left	asynchronous
483.39644587785006	6.684600139968097	keypress	right	right	synchronous
489.8661785470322	6.469732669182122	keypress	right	left	asynchronous
494.7507707448676	4.884592197835445	keypress	right	right	synchronous
500.6993032610044	5.9485325161367655	keypress	right	left	asynchronous
507.1191484150477	6.419845154043287	keypress	right	right	synchronous
512.9516687761061	5.832520361058414	keypress	right	left	asynchronous
519.0016324836761	6.049963707569987	keypress	right	right	synchronous
523.139644744806	4.138012261129916	keypress	right	left	asynchronous
526.9590185317211	3.8193737869150937	keypress	right	right	synchronous
533.0104710739106	6.051452542189509	keypress	right	left	asynchronous
538.209939727094	5.19946865318343	keypress	right	right	synchronous
541.390280332882	3.180340605787933	keypress	right	left	asynchronous
546.4340627170168	5.043782384134829	keypress	right	right	synchronous
552.7931228550151	6.359060137998313	keypress	right	left	asynchronous
554.5970558789559	1.8039330239407718	keypress	right	right	synchronous
557.2002757838927	2.60321990493685	keypress	right	left	asynchronous
560.2764923498034	3.076216565910727	keypress	right	right	synchronous
561.7648696969263	1.4883773471228778	keypress	right	left	asynchronous
566.2742876689881	4.509417972061783	keypress	right	right	synchronous
570.7899488238618	4.515661154873669	keypress	right	left	asynchronous
576.8338792570867	6.043930433224887	keypress	right	right	synchronous
579.6977273900993	2.8638481330126524	keypress	right	left	asynchronous
584.7417816407979	5.044054250698537	keypress	right	right	synchronous
590.1002464620396	5.358464821241796	keypress	right	left	asynchronous
595.7734066098928	n/a	keypress	right	right	synchronous
600.0104438397102	n/a	end_rivalry	right	n/a	n/a
