onset	duration	trial	sync_side	key	dominant
0.0	n/a	start_rivalry	right	n/a	n/a
2.924119181931019	n/a	keypress	right	left	asynchronous
3.668768328614533	0.7446491466835141	keypress	right	right	synchronous
4.956308292225003	1.2875399636104703	keypress	right	left	asynchronous
6.081331247463822	1.1250229552388191	keypress	right	right	synchronous
9.952990943565965	3.8716596961021423	keypress	right	left	asynchronous
12.606246526353061	2.6532555827870965	keypress	right	right	synchronous
14.79282830376178	2.186581777408719	keypress	right	left	asynchronous
16.916262599639595	2.1234342958778143	keypress	right	right	synchronous
18.40430969465524	1.488047095015645	keypress	right	left	asynchronous
20.259000168181956	1.8546904735267162	keypress	right	right	synchronous
21.747189342975616	1.4881891747936606	keypress	right	left	asynchronous
24.134786473587155	2.387597130611539	keypress	right	right	synchronous
26.57908380124718	2.444297327660024	keypress	right	left	asynchronous
28.75015796441585	2.1710741631686687	keypress	right	right	synchronous
30.767819229513407	2.0176612650975585	keypress	right	left	asynchronous
36.496065500192344	5.728246270678937	keypress	right	right	synchronous
38.355859897099435	1.8597943969070911	keypress	right	left	asynchronous
41.376318828202784	3.0204589311033487	keypress	right	right	synchronous
42.54297954123467	1.166660713031888	keypress	right	left	asynchronous
46.151868687942624	3.608889146707952	keypress	right	right	synchronous
48.11688245926052	1.9650137713178992	keypress	right	left	asynchronous
49.07252277433872	0.9556403150781989	keypress	right	right	synchronous
49.70846956502646	0.6359467906877398	keypress	right	left	asynchronous
52.091103193350136	2.382633628323674	keypress	right	right	synchronous
53.25766114424914	1.166557950899005	keypress	right	left	asynchronous
55.05966805946082	1.8020069152116776	keypress	right	right	synchronous
56.38228747714311	1.32261941768229	keypress	right	left	asynchronous
58.18756762612611	1.8052801489830017	keypress	right	right	synchronous
60.73383668716997	2.5462690610438585	keypress	right	left	asynchronous
62.32854857109487	1.5947118839249015	keypress	right	right	synchronous
64.39818079676479	2.0696322256699204	keypress	right	left	asynchronous
66.25471888575703	1.856538088992238	keypress	right	right	synchronous
68.00708763767034	1.752368751913309	keypress	right	left	asynchronous
70.28554235678166	2.2784547191113234	keypress	right	right	synchronous
72.77699581999332	2.4914534632116556	keypress	right	left	asynchronous
74.79528387170285	2.0182880517095327	keypress	right	right	synchronous
76.70605034660548	1.9107664749026299	keypress	right	left	asynchronous
78.19253846909851	1.4864881224930286	keypress	right	right	synchronous
80.00067241396755	1.8081339448690414	keypress	right	left	asynchronous
81.22349650319666	1.222824089229107	keypress	right	right	synchronous
85.20210732147098	3.978610818274319	keypress	right	left	asynchronous
86.79317905846983	1.591071736998856	keypress	right	right	synchronous
90.4564308701083	3.6632518116384745	keypress	right	left	asynchronous
93.53716826904565	3.0807373989373446	keypress	right	right	synchronous
94.96595232188702	1.4287840528413653	keypress	right	left	asynchronous
96.29313901625574	1.32718669436872	keypress	right	right	synchronous
96.9278958402574	0.6347568240016699	keypress	right	left	asynchronous
98.25481942296028	1.3269235827028751	keypress	right	right	synchronous
101.01623759418726	2.7614181712269783	keypress	right	left	asynchronous
103.35075316298753	2.3345155688002706	keypress	right	right	synchronous
105.26103640627116	1.9102832432836294	keypress	right	left	asynchronous
106.79662859719247	1.5355921909213066	keypress	right	right	synchronous
109.65747907478362	2.860850477591157	keypress	right	left	asynchronous
111.46407583449036	1.8065967597067356	keypress	right	right	synchronous
111.78240307234228	0.31832723785191774	keypress	right	left	asynchronous
113.47846928425133	1.6960662119090557	keypress	right	right	synchronous
115.28564159944654	1.8071723151952028	keypress	right	left	asynchronous
116.55725365970284	1.2716120602563024	keypress	right	right	synchronous
118.0442143958062	1.4869607361033559	keypress	right	left	asynchronous
119.37404542416334	1.3298310283571482	keypress	right	right	synchronous
120.91114005073905	1.5370946265757084	keypress	right	left	asynchronous
123.02854837290943	2.1174083221703768	keypress	right	right	synchronous
126.89574485458434	3.8671964816749096	keypress	right	left	asynchronous
127.63938282709569	0.7436379725113511	keypress	right	right	synchronous
131.03219902608544	3.392816198989749	keypress	right	left	asynchronous
135.33267911802977	4.300480091944337	keypress	right	right	synchronous
137.40449893847108	2.0718198204413056	keypress	right	left	asynchronous
139.4723195824772	2.067820644006133	keypress	right	right	synchronous
141.7529159290716	2.2805963465943933	keypress	right	left	asynchronous
143.6066255029291	1.8537095738574862	keypress	right	right	synchronous
145.03871076740324	1.4320852644741535	keypress	right	left	asynchronous
151.2999549768865	6.261244209483266	keypress	right	right	synchronous
153.26550928037614	1.9655543034896255	keypress	right	left	asynchronous
155.28436684049666	2.018857560120523	keypress	right	right	synchronous
156.875976389274	1.5916095487773418	keypress	right	left	asynchronous
157.8288899892941	0.9529136000201106	keypress	right	right	synchronous
159.95118406880647	2.1222940795123577	keypress	right	left	asynchronous
161.86125423479825	1.9100701659917831	keypress	right	right	synchronous
163.02988173998892	1.1686275051906705	keypress	right	left	asynchronous
164.62163885310292	1.5917571131139994	keypress	right	right	synchronous
166.47918663267046	1.8575477795675397	keypress	right	left	asynchronous
168.76067559048533	2.2814889578148723	keypress	right	right	synchronous
171.14953269436955	2.38885710388422	keypress	right	left	asynchronous
172.5292106550187	1.3796779606491327	keypress	right	right	synchronous
174.1731835519895	1.6439728969708085	keypress	right	left	asynchronous
175.4991793204099	1.3259957684203982	keypress	right	right	synchronous
176.98406578879803	1.4848864683881402	keypress	right	left	asynchronous
178.09959459211677	1.115528803318739	keypress	right	right	synchronous
179.37562156561762	1.2760269735008478	keypress	right	left	asynchronous
180.8114335872233	1.4358120216056705	keypress	right	right	synchronous
182.40303529053926	1.5916017033159733	keypress	right	left	asynchronous
184.1028799712658	1.6998446807265282	keypress	right	right	synchronous
185.2158104646951	1.1129304934293032	keypress	right	left	asynchronous
185.80205712933093	0.5862466646358371	keypress	right	right	synchronous
187.44501644652337	1.6429593171924353	keypress	right	left	asynchronous
189.25324195064604	1.8082255041226745	keypress	right	right	synchronous
191.85422990471125	2.6009879540652037	keypress	right	left	asynchronous
193.92464042361826	2.0704105189070106	keypress	right	right	synchronous
194.98521847371012	1.0605780500918627	keypress	right	left	asynchronous
196.67840265389532	1.6931841801851988	keypress	right	right	synchronous
197.84706897009164	1.1686663161963224	keypress	right	left	asynchronous
199.33657125663012	1.4895022865384817	keypress	right	right	synchronous
201.62248235940933	2.2859111027792096	keypress	right	left	asynchronous
203.58278875239193	1.9603063929826021	keypress	right	right	synchronous
207.3469809545204	3.76419220212847	keypress	right	left	asynchronous
209.30647605657578	1.9594951020553708	keypress	right	right	synchronous
210.739431258291	1.432955201715231	keypress	right	left	asynchronous
212.06684760935605	1.3274163510650396	keypress	right	right	synchronous
213.07473026961088	1.007882660254836	keypress	right	left	asynchronous
214.77328622248024	1.6985559528693557	keypress	right	right	synchronous
220.8190460121259	6.045759789645672	keypress	right	left	asynchronous
222.840980659239	2.021934647113085	keypress	right	right	synchronous
225.96444671414793	3.1234660549089313	keypress	right	left	asynchronous
226.70769381988794	0.7432471057400107	keypress	right	right	synchronous
229.78357606939971	3.0758822495117784	keypress	right	left	asynchronous
230.84535874053836	1.0617826711386442	keypress	right	right	synchronous
232.43643938191235	1.591080641373992	keypress	right	left	asynchronous
234.40067661367357	1.9642372317612171	keypress	right	right	synchronous
236.52193694654852	2.1212603328749537	keypress	right	left	asynchronous
239.12682281434536	2.6048858677968383	keypress	right	right	synchronous
241.83166767004877	2.7048448557034135	keypress	right	left	asynchronous
247.40957377664745	5.577906106598675	keypress	right	right	synchronous
251.17699394375086	3.7674201671034098	keypress	right	left	asynchronous
257.53556447289884	6.358570529147983	keypress	right	right	synchronous
261.61920553073287	4.083641057834029	keypress	right	left	asynchronous
264.0602665459737	2.441061015240848	keypress	right	right	synchronous
265.54889925196767	1.4886327059939504	keypress	right	left	asynchronous
271.91109009552747	6.362190843559802	keypress	right	right	synchronous
274.5141761554405	2.603086059913039	keypress	right	left	asynchronous
279.23683964367956	4.72266348823905	keypress	right	right	synchronous
281.67530021443963	2.4384605707600713	keypress	right	left	asynchronous
283.7482050517574	2.0729048373177648	keypress	right	right	synchronous
287.94763690046966	4.1994318487122655	keypress	right	left	asynchronous
291.2885247049853	3.34088780451566	keypress	right	right	synchronous
292.82377141341567	1.5352467084303498	keypress	right	left	asynchronous
293.8337318422273	1.0099604288116097	keypress	right	right	synchronous
300.20320435706526	6.36947251483798	keypress	right	left	asynchronous
303.22575167473406	3.0225473176687956	keypress	right	right	synchronous
311.2437484553084	8.017996780574322	keypress	right	left	asynchronous
314.9648609859869	3.7211125306785107	keypress	right	right	synchronous
317.8840318908915	2.919170904904604	keypress	right	left	asynchronous
322.282532366924	4.3985004760324955	keypress	right	right	synchronous
332.47109447978437	10.188562112860382	keypress	right	left	asynchronous
338.1557707171887	5.6846762374043465	keypress	right	right	synchronous
340.01185551006347	1.8560847928747535	keypress	right	left	asynchronous
341.815181854181	1.8033263441175222	keypress	right	right	synchronous
343.67402975447476	1.8588479002937675	keypress	right	left	asynchronous
347.02086799778044	3.346838243305683	keypress	right	right	synchronous
348.4549946859479	1.4341266881674528	keypress	right	left	asynchronous
349.35833163466305	0.9033369487151504	keypress	right	right	synchronous
350.94760464224964	1.5892730075865984	keypress	right	left	asynchronous
353.4959726324305	2.54836799018085	keypress	right	right	synchronous
355.7757095582783	2.2797369258478284	keypress	right	left	asynchronous
357.2593990685418	1.4836895102635026	keypress	right	right	synchronous
358.69531699828804	1.4359179297462106	keypress	right	left	asynchronous
361.0322453510016	2.336928352713585	keypress	right	right	synchronous
362.0416725669056	1.0094272159039974	keypress	right	left	asynchronous
362.8376167686656	0.795944201759994	keypress	right	right	synchronous
364.3218444250524	1.4842276563867927	keypress	right	left	asynchronous
367.3456726325676	3.02382820751518	keypress	right	right	synchronous
373.4525478510186	6.106875218451023	keypress	right	left	asynchronous
375.47321477066725	2.0206669196486473	keypress	right	right	synchronous
381.94358234200627	6.470367571339011	keypress	right	left	asynchronous
384.5411960054189	2.5976136634126306	keypress	right	right	synchronous
386.50253266468644	1.9613366592675447	keypress	right	left	asynchronous
387.9851955855265	1.4826629208400846	keypress	right	right	synchronous
392.1777982087806	4.192602623254061	keypress	right	left	asynchronous
393.9241717560217	1.7463735472410917	keypress	right	right	synchronous
396.577308781445	2.653137025423348	keypress	right	left	asynchronous
398.5395803069696	1.9622715255245566	keypress	right	right	synchronous
402.8281632736325	4.288582966662943	keypress	right	left	asynchronous
403.0944293430075	0.26626606937497854	keypress	right	right	synchronous
406.32888301089406	3.234453667886555	keypress	right	left	asynchronous
410.4644911689684	4.135608158074319	keypress	right	right	synchronous
417.7933908859268	7.328899716958404	keypress	right	left	asynchronous
419.9131690375507	2.1197781516239047	keypress	right	right	synchronous
421.39865214470774	1.4854831071570516	keypress	right	left	asynchronous
425.63843114860356	4.239779003895819	keypress	right	right	synchronous
428.02603588066995	2.387604732066393	keypress	right	left	asynchronous
428.23977284599096	0.2137369653210044	keypress	right	right	synchronous
428.71772142965347	0.4779485836625099	keypress	right	left	asynchronous
432.2703458564356	3.552624426782131	keypress	right	right	synchronous
433.16931273415685	0.8989668777212501	keypress	right	left	asynchronous
435.61150617618114	2.4421934420242906	keypress	right	right	synchronous
439.1144579378888	3.5029517617076635	keypress	right	left	asynchronous
440.923852622509	1.8093946846202016	keypress	right	right	synchronous
442.7785418499261	1.8546892274171114	keypress	right	left	asynchronous
443.5730805899948	0.7945387400686741	keypress	right	right	synchronous
445.4849640838802	1.911883493885398	keypress	right	left	asynchronous
446.12069720961154	0.635733125731349	keypress	right	right	synchronous
447.55258804000914	1.431890830397606	keypress	right	left	asynchronous
448.2423415100202	0.6897534700110555	keypress	right	right	synchronous
450.95087710861117	2.70853559859097	keypress	right	left	asynchronous
452.0698329824954	1.1189558738842607	keypress	right	right	synchronous
453.97959376778454	1.9097607852891088	keypress	right	left	asynchronous
456.3616105597466	2.382016791962087	keypress	right	right	synchronous
458.0062981741503	1.644687614403665	keypress	right	left	asynchronous
460.4533440200612	2.447045845910907	keypress	right	right	synchronous
462.89885323122144	2.4455092111602426	keypress	right	left	asynchronous
467.99808525200933	5.099232020787895	keypress	right	right	synchronous
469.53694586642087	1.5388606144115329	keypress	right	left	asynchronous
471.81293790228665	2.2759920358657837	keypress	right	right	synchronous
472.28967621177435	0.47673830948770046	keypress	right	left	asynchronous
477.27507195435464	4.985395742580295	keypress	right	right	synchronous
478.3871488459408	1.1120768915861845	keypress	right	left	asynchronous
480.40770696569234	2.020558119751513	keypress	right	right	synchronous
483.2666279245168	2.8589209588244557	keypress	right	left	asynchronous
485.86666931957006	2.6000413950532675	keypress	right	right	synchronous
487.13779294863343	1.2711236290633678	keypress	right	left	asynchronous
488.99336924869567	1.8555763000622392	keypress	right	right	synchronous
489.9977684514597	1.0043992027640343	keypress	right	left	asynchronous
498.7002178831026	8.70244943164289	keypress	right	right	synchronous
500.44857245404273	1.748354570940137	keypress	right	left	asynchronous
502.0479500647634	1.599377610720694	keypress	right	right	synchronous
505.1697963355109	3.1218462707474828	keypress	right	left	asynchronous
506.6019521513954	1.432155815884471	keypress	right	right	synchronous
510.52102351468056	3.919071363285184	keypress	right	left	asynchronous
511.42085540946573	0.8998318947851658	keypress	right	right	synchronous
512.9047237224877	1.4838683130219579	keypress	right	left	asynchronous
514.9220076063648	2.0172838838770986	keypress	right	right	synchronous
517.1476889234036	2.225681317038834	keypress	right	left	asynchronous
520.0707753440365	2.923086420632899	keypress	right	right	synchronous
522.7211935790256	2.650418234989047	keypress	right	left	asynchronous
523.6224564211443	0.9012628421187401	keypress	right	right	synchronous
525.4785859650001	1.8561295438557863	keypress	right	left	asynchronous
526.0619186721742	0.5833327071741223	keypress	right	right	synchronous
528.7113728811964	2.649454209022224	keypress	right	left	asynchronous
529.8238128414378	1.1124399602413177	keypress	right	right	synchronous
531.8421066543087	2.0182938128709793	keypress	right	left	asynchronous
533.3276167446747	1.485510090366006	keypress	right	right	synchronous
534.813729817979	1.4861130733042955	keypress	right	left	asynchronous
536.302188532427	1.4884587144479156	keypress	right	right	synchronous
536.7269898401573	0.4248013077303767	keypress	right	left	asynchronous
536.8859709827229	0.15898114256560802	keypress	right	right	synchronous
537.6297901393846	0.7438191566616297	keypress	right	left	asynchronous
538.6353482576087	1.005558118224144	keypress	right	right	synchronous
538.8482128335163	0.212864575907588	keypress	right	left	asynchronous
543.2013339716941	4.353121138177812	keypress	right	right	synchronous
544.3157674605027	1.1144334888085723	keypress	right	left	asynchronous
549.5672888774425	5.251521416939795	keypress	right	right	synchronous
550.8951541408896	1.3278652634471655	keypress	right	left	asynchronous
552.225143504329	1.3299893634393811	keypress	right	right	synchronous
554.4034323524684	2.1782888481393456	keypress	right	left	asynchronous
559.0689698969945	4.66553754452616	keypress	right	right	synchronous
561.3485388848931	2.2795689878985286	keypress	right	left	asynchronous
561.5625752517954	0.21403636690229177	keypress	right	right	synchronous
561.7766648465768	0.21408959478139877	keypress	right	left	asynchronous
565.1821226589382	3.405457812361419	keypress	right	right	synchronous
568.0434876969084	2.861365037970245	keypress	right	left	asynchronous
568.7336314544082	0.6901437574997544	keypress	right	right	synchronous
570.0092587834224	1.2756273290142417	keypress	right	left	asynchronous
570.5392099712044	0.5299511877819896	keypress	right	right	synchronous
572.6140136495233	2.074803678318858	keypress	right	left	asynchronous
572.8806555252522	0.2666418757289648	keypress	right	right	synchronous
575.0040471702814	2.123391645029187	keypress	right	left	asynchronous
575.9597554756328	0.9557083053514361	keypress	right	right	synchronous
577.2381688700989	1.2784133944660425	keypress	right	left	asynchronous
582.5399274295196	5.301758559420705	keypress	right	right	synchronous
583.7107195006683	1.1707920711487532	keypress	right	left	asynchronous
583.9230942837894	0.2123747831210494	keypress	right	right	synchronous
585.8311476958916	1.9080534121021628	keypress	right	left	asynchronous
586.9965204074979	1.1653727116063237	keypress	right	right	synchronous
588.8506166301668	1.8540962226688862	keypress	right	left	asynchronous
588.9571391036734	0.10652247350662947	keypress	right	right	synchronous
589.4340780703351	0.47693896666169167	keypress	right	left	asynchronous
589.8584767049178	0.42439863458275795	keypress	right	right	synchronous
591.5585079779848	1.7000312730669975	keypress	right	left	asynchronous
593.7317088339478	2.173200855962932	keypress	right	right	synchronous
594.6306758709252	0.8989670369774103	keypress	right	left	asynchronous
598.5540263326839	n/a	keypress	right	right	synchronous
600.0425550043583	n/a	end_rivalry	right	n/a	n/a
