onset	duration	trial	sync_side	key	dominant
0.0	n/a	start_rivalry	right	n/a	n/a
1.1666559148579836	n/a	keypress	right	right	synchronous
2.599076026119292	1.4324201112613082	keypress	right	left	asynchronous
4.666741224937141	2.067665198817849	keypress	right	right	synchronous
6.364878903143108	1.698137678205967	keypress	right	left	asynchronous
7.691392560023814	1.3265136568807065	keypress	right	right	synchronous
9.54786358308047	1.8564710230566561	keypress	right	left	asynchronous
11.348946930840611	1.801083347760141	keypress	right	right	synchronous
14.63466433994472	3.285717409104109	keypress	right	left	asynchronous
16.91588066983968	2.28121632989496	keypress	right	right	synchronous
19.30566707579419	2.38978640595451	keypress	right	left	asynchronous
21.430603641085327	2.1249365652911365	keypress	right	right	synchronous
24.45383997494355	3.0232363338582218	keypress	right	left	asynchronous
27.108854425139725	2.6550144501961768	keypress	right	right	synchronous
33.14797288784757	6.039118462707847	keypress	right	left	asynchronous
34.8476254241541	1.6996525363065302	keypress	right	right	synchronous
37.07221345882863	2.2245880346745253	keypress	right	left	asynchronous
38.82069041300565	1.748476954177022	keypress	right	right	synchronous
41.42130204802379	2.60061163501814	keypress	right	left	asynchronous
45.13026116974652	3.708959121722728	keypress	right	right	synchronous
47.46721499180421	2.336953822057694	keypress	right	left	asynchronous
51.50462379679084	4.037408804986626	keypress	right	right	synchronous
54.36994596384466	2.8653221670538187	keypress	right	left	asynchronous
57.931048824917525	3.561102861072868	keypress	right	right	synchronous
62.069693149998784	4.138644325081259	keypress	right	left	asynchronous
64.87950610602275	2.8098129560239613	keypress	right	right	synchronous
67.42628497909755	2.5467788730747998	keypress	right	left	asynchronous
69.49487579800189	2.0685908189043403	keypress	right	right	synchronous
72.35798352677375	2.8631077287718654	keypress	right	left	asynchronous
75.54037097888067	3.182387452106923	keypress	right	right	synchronous
77.92518000397831	2.3848090250976384	keypress	right	left	asynchronous
81.21132493391633	3.2861449299380183	keypress	right	right	synchronous
83.97021785378456	2.758892919868231	keypress	right	left	asynchronous
86.1529306769371	2.182712823152542	keypress	right	right	synchronous
88.11200959607959	1.9590789191424847	keypress	right	left	asynchronous
90.3950329828076	2.2830233867280185	keypress	right	right	synchronous
92.62228570878506	2.2272527259774506	keypress	right	left	asynchronous
95.06106469687074	2.438778988085687	keypress	right	right	synchronous
96.92020678380504	1.8591420869342983	keypress	right	left	asynchronous
100.63535238802433	3.7151456042192876	keypress	right	right	synchronous
103.75368903111666	3.1183366430923343	keypress	right	left	asynchronous
106.14421228598803	2.3905232548713684	keypress	right	right	synchronous
108.85361731005833	2.7094050240702927	keypress	right	left	asynchronous
110.65811920212582	1.804501892067492	keypress	right	right	synchronous
112.41394627373666	1.7558270716108382	keypress	right	left	asynchronous
114.9592799320817	2.5453336583450437	keypress	right	right	synchronous
117.346772658173	2.3874927260912955	keypress	right	left	asynchronous
120.63246332108974	3.2856906629167497	keypress	right	right	synchronous
123.12725032912567	2.494787008035928	keypress	right	left	asynchronous
126.74163873773068	3.6143884086050093	keypress	right	right	synchronous
131.30708296084777	4.565444223117083	keypress	right	left	asynchronous
134.00946798315272	2.702385022304952	keypress	right	right	synchronous
135.44291858375072	1.4334506005980074	keypress	right	left	asynchronous
137.18997593875974	1.7470573550090194	keypress	right	right	synchronous
141.42612871387973	4.23615277511999	keypress	right	left	asynchronous
143.97940141893923	2.5532727050594985	keypress	right	right	synchronous
146.9561912980862	2.9767898791469634	keypress	right	left	asynchronous
149.4485016190447	2.492310320958495	keypress	right	right	synchronous
152.5228892560117	3.0743876369670033	keypress	right	left	asynchronous
155.81085058674216	3.287961330730468	keypress	right	right	synchronous
157.50554284872487	1.6946922619827092	keypress	right	left	asynchronous
163.02001725090668	5.514474402181804	keypress	right	right	synchronous
166.47036809800193	3.450350847095251	keypress	right	left	asynchronous
168.48770439997315	2.017336301971227	keypress	right	right	synchronous
170.501496642828	2.0137922428548336	keypress	right	left	asynchronous
172.46283469581977	1.9613380529917777	keypress	right	right	synchronous
176.38502722792327	3.9221925321035087	keypress	right	left	asynchronous
178.55832094093785	2.173293713014573	keypress	right	right	synchronous
182.75185893801972	4.193537997081876	keypress	right	left	asynchronous
185.46335642505437	2.7114974870346487	keypress	right	right	synchronous
188.85761144384742	3.3942550187930465	keypress	right	left	asynchronous
192.4083947171457	3.5507832732982934	keypress	right	right	synchronous
195.37190912198275	2.963514404837042	keypress	right	left	asynchronous
197.07413342501968	1.7022243030369282	keypress	right	right	synchronous
199.0880510318093	2.0139176067896187	keypress	right	left	asynchronous
201.42860095016658	2.340549918357283	keypress	right	right	synchronous
204.4517914610915	3.0231905109249055	keypress	right	left	asynchronous
208.74937151186168	4.297580050770193	keypress	right	right	synchronous
210.81570653105155	2.0663350191898644	keypress	right	left	asynchronous
213.68410416971892	2.868397638667375	keypress	right	right	synchronous
214.68749110680073	1.0033869370818138	keypress	right	left	asynchronous
216.8645323999226	2.1770412931218743	keypress	right	right	synchronous
219.5726121738553	2.7080797739326954	keypress	right	left	asynchronous
221.9090804727748	2.336468298919499	keypress	right	right	synchronous
225.9847409678623	4.075660495087504	keypress	right	left	asynchronous
228.36767889885232	2.3829379309900105	keypress	right	right	synchronous
232.03043220378458	3.6627533049322665	keypress	right	left	asynchronous
235.0587604790926	3.028328275308013	keypress	right	right	synchronous
237.3928676098585	2.334107130765915	keypress	right	left	asynchronous
238.8773312731646	1.4844636633060873	keypress	right	right	synchronous
242.48916482413188	3.611833550967276	keypress	right	left	asynchronous
245.98324801493436	3.4940831908024848	keypress	right	right	synchronous
249.7497221059166	3.7664740909822285	keypress	right	left	asynchronous
253.77755470899865	4.027832603082061	keypress	right	right	synchronous
256.9562731627375	3.1787184537388384	keypress	right	left	asynchronous
258.2280422449112	1.271769082173705	keypress	right	right	synchronous
260.4552046949975	2.2271624500863254	keypress	right	left	asynchronous
267.3987815529108	6.9435768579132855	keypress	right	right	synchronous
270.6897087311372	3.2909271782264113	keypress	right	left	asynchronous
276.1564265517518	5.466717820614576	keypress	right	right	synchronous
280.2424676581286	4.086041106376797	keypress	right	left	asynchronous
284.74989465205	4.507426993921399	keypress	right	right	synchronous
289.0450521437451	4.295157491695136	keypress	right	left	asynchronous
293.7129379911348	4.667885847389698	keypress	right	right	synchronous
297.218070610892	3.5051326197572052	keypress	right	left	asynchronous
299.66000678204	2.4419361711479723	keypress	right	right	synchronous
303.1067773299292	3.446770547889173	keypress	right	left	asynchronous
306.6071400148794	3.5003626849502325	keypress	right	right	synchronous
309.0477741220966	2.4406341072171926	keypress	right	left	asynchronous
313.0733330999501	4.025558977853507	keypress	right	right	synchronous
315.7801405247301	2.7068074247799814	keypress	right	left	asynchronous
316.84159568790346	1.0614551631733775	keypress	right	right	synchronous
318.7016726071015	1.8600769191980362	keypress	right	left	asynchronous
320.5597876450047	1.8581150379031897	keypress	right	right	synchronous
322.31186557374895	1.7520779287442565	keypress	right	left	asynchronous
324.54043268505484	2.2285671113058925	keypress	right	right	synchronous
329.2042113151401	4.6637786300852895	keypress	right	left	asynchronous
330.58198272716254	1.3777714120224118	keypress	right	right	synchronous
332.1732870209962	1.591304293833673	keypress	right	left	asynchronous
334.39534404408187	2.222057023085654	keypress	right	right	synchronous
337.37201922014356	2.97667517606169	keypress	right	left	asynchronous
339.8634658250958	2.491446604952216	keypress	right	right	synchronous
343.3612055447884	3.4977397196926177	keypress	right	left	asynchronous
347.07472882512957	3.713523280341178	keypress	right	right	synchronous
351.6402341737412	4.565505348611623	keypress	right	left	asynchronous
355.46166160097346	3.8214274272322655	keypress	right	right	synchronous
359.39409234188497	3.9324307409115136	keypress	right	left	asynchronous
362.62881611287594	3.2347237709909678	keypress	right	right	synchronous
364.32792752981186	1.6991114169359207	keypress	right	left	asynchronous
366.9231412499212	2.5952137201093137	keypress	right	right	synchronous
369.36406585993245	2.4409246100112796	keypress	right	left	asynchronous
371.9131450019777	2.5490791420452297	keypress	right	right	synchronous
375.5156692210585	3.602524219080806	keypress	right	left	asynchronous
376.6318919858895	1.1162227648310363	keypress	right	right	synchronous
378.2257520467974	1.5938600609079003	keypress	right	left	asynchronous
379.7135717640631	1.4878197172656655	keypress	right	right	synchronous
381.78694318281487	2.073371418751776	keypress	right	left	asynchronous
384.28031861409545	2.493375431280583	keypress	right	right	synchronous
386.296422611922	2.0161039978265762	keypress	right	left	asynchronous
388.26721238391474	1.9707897719927132	keypress	right	right	synchronous
390.49778529116884	2.2305729072541	keypress	right	left	asynchronous
393.9396667429246	3.441881451755762	keypress	right	right	synchronous
397.5454323301092	3.605765587184578	keypress	right	left	asynchronous
400.0917587429285	2.546326412819326	keypress	right	right	synchronous
403.8644373738207	3.7726786308921874	keypress	right	left	asynchronous
405.7742056767456	1.909768302924931	keypress	right	right	synchronous
408.1056250859983	2.331419409252703	keypress	right	left	asynchronous
410.2810244797729	2.175399393774569	keypress	right	right	synchronous
412.82775122579187	2.546726746018976	keypress	right	left	asynchronous
416.01377752190456	3.1860262961126864	keypress	right	right	synchronous
419.0366132608615	3.0228357389569283	keypress	right	left	asynchronous
421.371072024107	2.334458763245493	keypress	right	right	synchronous
424.81939025595784	3.4483182318508625	keypress	right	left	asynchronous
427.256150838919	2.436760582961142	keypress	right	right	synchronous
431.1297696889378	3.873618850018829	keypress	right	left	asynchronous
433.8903928059153	2.760623116977513	keypress	right	right	synchronous
435.90764844603837	2.0172556401230395	keypress	right	left	asynchronous
437.4471786888316	1.539530242793262	keypress	right	right	synchronous
438.93410098180175	1.486922292970121	keypress	right	left	asynchronous
442.3847642899491	3.450663308147341	keypress	right	right	synchronous
445.83692512707785	3.4521608371287584	keypress	right	left	asynchronous
446.8440741491504	1.0071490220725536	keypress	right	right	synchronous
448.222541752737	1.3784676035866141	keypress	right	left	asynchronous
451.2979958159849	3.0754540632478893	keypress	right	right	synchronous
453.85230769217014	2.5543118761852384	keypress	right	left	asynchronous
458.2548465169966	4.402538824826479	keypress	right	right	synchronous
459.3170593427494	1.0622128257527947	keypress	right	left	asynchronous
461.4426904800348	2.1256311372853816	keypress	right	right	synchronous
462.9259573840536	1.4832669040188193	keypress	right	left	asynchronous
464.6797840660438	1.7538266819901764	keypress	right	right	synchronous
467.54652473609895	2.866740670055151	keypress	right	left	asynchronous
471.15108826290816	3.6045635268092155	keypress	right	right	synchronous
474.3861168990843	3.235028636176139	keypress	right	left	asynchronous
479.85251004993916	5.466393150854856	keypress	right	right	synchronous
482.02818021317944	2.1756701632402837	keypress	right	left	asynchronous
483.7206952897832	1.6925150766037405	keypress	right	right	synchronous
485.7366681569256	2.015972867142409	keypress	right	left	asynchronous
488.977401509881	3.2407333529554307	keypress	right	right	synchronous
491.4842805028893	2.5068789930082858	keypress	right	left	asynchronous
494.0305735687725	2.5462930658832192	keypress	right	right	synchronous
495.62156995013356	1.5909963813610375	keypress	right	left	asynchronous
497.4796110149473	1.858041064813733	keypress	right	right	synchronous
503.317303664051	5.837692649103701	keypress	right	left	asynchronous
506.4416749239899	3.1243712599389255	keypress	right	right	synchronous
507.45358833298087	1.0119134089909494	keypress	right	left	asynchronous
508.8832432399504	1.4296549069695175	keypress	right	right	synchronous
511.42689174972475	2.543648509774357	keypress	right	left	asynchronous
514.5546805141494	3.127788764424622	keypress	right	right	synchronous
516.8916430398822	2.3369625257328153	keypress	right	left	asynchronous
519.0163807831705	2.1247377432882786	keypress	right	right	synchronous
521.9361491301097	2.919768346939236	keypress	right	left	asynchronous
524.853919561021	2.9177704309113324	keypress	right	right	synchronous
527.345775378868	2.491855817846954	keypress	right	left	asynchronous
529.1989933797158	1.8532180008478463	keypress	right	right	synchronous
533.1742368908599	3.975243511144072	keypress	right	left	asynchronous
536.5145543329418	3.3403174420818686	keypress	right	right	synchronous
539.3284750450402	2.8139207120984793	keypress	right	left	asynchronous
543.1009365571663	3.7724615121260285	keypress	right	right	synchronous
548.8862490118481	5.7853124546818435	keypress	right	left	asynchronous
551.4867610097863	2.600511997938156	keypress	right	right	synchronous
554.4622474978678	2.975486488081515	keypress	right	left	asynchronous
556.8452404830605	2.3829929851926863	keypress	right	right	synchronous
558.8644625600427	2.0192220769822598	keypress	right	left	asynchronous
561.0933235320263	2.228860971983522	keypress	right	right	synchronous
563.6347911870107	2.5414676549844444	keypress	right	left	asynchronous
567.4077066821046	3.772915495093912	keypress	right	right	synchronous
570.4351629819721	3.027456299867481	keypress	right	left	asynchronous
572.5531116761267	2.11794869415462	keypress	right	right	synchronous
573.5621824711561	1.0090707950294018	keypress	right	left	asynchronous
575.8455242980272	2.2833418268710375	keypress	right	right	synchronous
578.3881774949841	2.5426531969569623	keypress	right	left	asynchronous
582.4742330107838	4.086055515799671	keypress	right	right	synchronous
583.2672123447992	0.7929793340153992	keypress	right	left	asynchronous
584.5926469038241	1.3254345590248704	keypress	right	right	synchronous
586.2335446281359	1.6408977243117988	keypress	right	left	asynchronous
588.9953559311107	2.76181130297482	keypress	right	right	synchronous
590.8485624161549	1.8532064850442111	keypress	right	left	asynchronous
594.026937795803	3.1783753796480596	keypress	right	right	synchronous
595.8814857648686	1.8545479690656066	keypress	right	left	asynchronous
597.7393411337398	n/a	keypress	right	right	synchronous
600.0154816638678	n/a	end_rivalry	right	n/a	n/a
