onset	duration	trial	sync_side	key	dominant
0.0	n/a	start_rivalry	left	n/a	n/a
2.5992401870898902	n/a	keypress	left	left	synchronous
4.035012909211218	1.4357727221213281	keypress	left	right	asynchronous
6.5835026991553605	2.548489789944142	keypress	left	left	synchronous
10.39615447120741	3.8126517720520496	keypress	left	right	asynchronous
14.053796826861799	3.6576423556543887	keypress	left	left	synchronous
16.073212367016822	2.0194155401550233	keypress	left	right	asynchronous
18.78463928308338	2.711426916066557	keypress	left	left	synchronous
21.970522882882506	3.1858835997991264	keypress	left	right	asynchronous
23.137332180980593	1.1668092980980873	keypress	left	left	synchronous
24.56913069402799	1.4317985130473971	keypress	left	right	asynchronous
26.689645808190107	2.1205151141621172	keypress	left	left	synchronous
28.33667468186468	1.6470288736745715	keypress	left	right	asynchronous
30.301519634202123	1.9648449523374438	keypress	left	left	synchronous
31.944864455144852	1.6433448209427297	keypress	left	right	asynchronous
33.060014112852514	1.1151496577076614	keypress	left	left	synchronous
37.25208411598578	4.192070003133267	keypress	left	right	asynchronous
41.17324962513521	3.921165509149432	keypress	left	left	synchronous
44.03831810923293	2.865068484097719	keypress	left	right	asynchronous
47.00385610992089	2.965538000687957	keypress	left	left	synchronous
48.071929486934096	1.0680733770132065	keypress	left	right	asynchronous
49.454092477913946	1.3821629909798503	keypress	left	left	synchronous
51.25361025519669	1.7995177772827446	keypress	left	right	asynchronous
53.48397724982351	2.23036699462682	keypress	left	left	synchronous
58.20847032079473	4.724493070971221	keypress	left	right	asynchronous
60.49245362216607	2.283983301371336	keypress	left	left	synchronous
62.56301087420434	2.0705572520382702	keypress	left	right	asynchronous
69.56897289585322	7.005962021648884	keypress	left	left	synchronous
71.05796180618927	1.4889889103360474	keypress	left	right	asynchronous
73.50296968407929	2.4450078778900206	keypress	left	left	synchronous
78.59202348813415	5.089053804054856	keypress	left	right	asynchronous
86.71021416923031	8.118190681096166	keypress	left	left	synchronous
87.72125631198287	1.011042142752558	keypress	left	right	asynchronous
89.31394955608994	1.5926932441070676	keypress	left	left	synchronous
91.06687548803166	1.7529259319417179	keypress	left	right	asynchronous
94.1960821938701	3.129206705838442	keypress	left	left	synchronous
98.1296745268628	3.9335923329927027	keypress	left	right	asynchronous
99.77328287623823	1.6436083493754268	keypress	left	left	synchronous
100.73183249915019	0.9585496229119599	keypress	left	right	asynchronous
101.73758999304846	1.0057574938982725	keypress	left	left	synchronous
103.22796606086195	1.4903760678134859	keypress	left	right	asynchronous
106.20471485797316	2.976748797111213	keypress	left	left	synchronous
108.96721983095631	2.7625049729831517	keypress	left	right	asynchronous
110.6707084751688	1.7034886442124844	keypress	left	left	synchronous
112.1590210380964	1.4883125629276037	keypress	left	right	asynchronous
114.54780928092077	2.3887882428243756	keypress	left	left	synchronous
116.83030651789159	2.282497236970812	keypress	left	right	asynchronous
120.59613991295919	3.7658333950676024	keypress	left	left	synchronous
124.68617448117584	4.090034568216652	keypress	left	right	asynchronous
126.43918535206467	1.7530108708888292	keypress	left	left	synchronous
127.65766705200076	1.218481699936092	keypress	left	right	asynchronous
130.31243911897764	2.654772066976875	keypress	left	left	synchronous
133.4953675288707	3.1829284098930657	keypress	left	right	asynchronous
135.51207753224298	2.016710003372282	keypress	left	left	synchronous
137.0493666632101	1.5372891309671104	keypress	left	right	asynchronous
138.6405766122043	1.5912099489942193	keypress	left	left	synchronous
139.59462417894974	0.9540475667454302	keypress	left	right	asynchronous
141.76944876089692	2.1748245819471776	keypress	left	left	synchronous
142.7762768981047	1.0068281372077763	keypress	left	right	asynchronous
144.7967363158241	2.020459417719394	keypress	left	left	synchronous
146.22863759379834	1.431901277974248	keypress	left	right	asynchronous
147.50483870180324	1.2762011080048978	keypress	left	left	synchronous
151.11628561513498	3.611446913331747	keypress	left	right	asynchronous
153.6630994840525	2.546813868917525	keypress	left	left	synchronous
154.83293707482517	1.1698375907726586	keypress	left	right	asynchronous
157.6444477820769	2.8115107072517276	keypress	left	left	synchronous
160.14493128610775	2.5004835040308535	keypress	left	right	asynchronous
161.79118434200063	1.6462530558928847	keypress	left	left	synchronous
164.75965986819938	2.9684755261987448	keypress	left	right	asynchronous
166.2952070068568	1.5355471386574209	keypress	left	left	synchronous
167.25485388189554	0.959646875038743	keypress	left	right	asynchronous
168.3176841349341	1.0628302530385554	keypress	left	left	synchronous
170.17867456097156	1.8609904260374606	keypress	left	right	asynchronous
174.15242565283552	3.97375109186396	keypress	left	left	synchronous
176.4883414017968	2.33591574896127	keypress	left	right	asynchronous
179.45983758708462	2.971496185287833	keypress	left	left	synchronous
181.90232387417927	2.4424862870946527	keypress	left	right	asynchronous
184.1326020192355	2.230278145056218	keypress	left	left	synchronous
185.19236121186987	1.059759192634374	keypress	left	right	asynchronous
187.2585959439166	2.0662347320467234	keypress	left	left	synchronous
189.3771771560423	2.1185812121257186	keypress	left	right	asynchronous
193.14660203596577	3.769424879923463	keypress	left	left	synchronous
194.4232835569419	1.2766815209761262	keypress	left	right	asynchronous
197.1767044737935	2.75342091685161	keypress	left	left	synchronous
198.98198162019253	1.8052771463990211	keypress	left	right	asynchronous
204.54485913179815	5.56287751160562	keypress	left	left	synchronous
205.97490756306797	1.4300484312698245	keypress	left	right	asynchronous
207.4085836801678	1.4336761170998216	keypress	left	left	synchronous
213.29952381178737	5.890940131619573	keypress	left	right	asynchronous
216.74903476517648	3.449510953389108	keypress	left	left	synchronous
217.70339099224657	0.9543562270700932	keypress	left	right	asynchronous
218.76659300317988	1.0632020109333098	keypress	left	left	synchronous
220.09326399303973	1.3266709898598492	keypress	left	right	asynchronous
222.3177424618043	2.2244784687645733	keypress	left	left	synchronous
224.91802346007898	2.600280998274684	keypress	left	right	asynchronous
227.30226549413055	2.3842420340515673	keypress	left	left	synchronous
230.1221055178903	2.8198400237597525	keypress	left	right	asynchronous
232.8366406718269	2.7145351539365947	keypress	left	left	synchronous
236.12445126799867	3.2878105961717665	keypress	left	right	asynchronous
238.8313232641667	2.706871996168047	keypress	left	left	synchronous
240.21426730416715	1.3829440400004387	keypress	left	right	asynchronous
241.27817126503214	1.063903960864991	keypress	left	left	synchronous
244.3058734559454	3.02770219091326	keypress	left	right	asynchronous
247.16915112687275	2.8632776709273458	keypress	left	left	synchronous
250.7239709510468	3.5548198241740465	keypress	left	right	asynchronous
251.57058971608058	0.8466187650337815	keypress	left	left	synchronous
254.60083459084854	3.030244874767959	keypress	left	right	asynchronous
259.3812179598026	4.7803833689540625	keypress	left	left	synchronous
263.788571535144	4.4073535753414035	keypress	left	right	asynchronous
266.17680416814983	2.3882326330058277	keypress	left	left	synchronous
269.73760872520506	3.560804557055235	keypress	left	right	asynchronous
274.94309533108026	5.205486605875194	keypress	left	left	synchronous
277.386028368026	2.4429330369457603	keypress	left	right	asynchronous
278.8710654620081	1.4850370939821005	keypress	left	left	synchronous
279.82891666097566	0.9578511989675462	keypress	left	right	asynchronous
282.5904126558453	2.7614959948696196	keypress	left	left	synchronous
286.788481424097	4.198068768251687	keypress	left	right	asynchronous
291.9910899139941	5.202608489897102	keypress	left	left	synchronous
293.2101067081094	1.219016794115305	keypress	left	right	asynchronous
294.3239778908901	1.1138711827807128	keypress	left	left	synchronous
295.6539877508767	1.3300098599866033	keypress	left	right	asynchronous
297.1920704222284	1.5380826713517308	keypress	left	left	synchronous
299.8010362358764	2.6089658136479557	keypress	left	right	asynchronous
304.0423654471524	4.241329211276025	keypress	left	left	synchronous
304.89593343716115	0.8535679900087416	keypress	left	right	asynchronous
305.8004445619881	0.9045111248269677	keypress	left	left	synchronous
308.55837477883324	2.757930216845125	keypress	left	right	asynchronous
311.05604439321905	2.4976696143858135	keypress	left	left	synchronous
314.3346652081236	3.2786208149045706	keypress	left	right	asynchronous
317.5677425148897	3.233077306766063	keypress	left	left	synchronous
321.594077995047	4.026335480157286	keypress	left	right	asynchronous
326.2645949330181	4.670516937971115	keypress	left	left	synchronous
330.7791439429857	4.514549009967595	keypress	left	right	asynchronous
331.6293757641688	0.8502318211831152	keypress	left	left	synchronous
332.9568635849282	1.3274878207594156	keypress	left	right	asynchronous
335.0228021549992	2.065938570071012	keypress	left	left	synchronous
336.6098838131875	1.5870816581882536	keypress	left	right	asynchronous
340.0648354832083	3.4549516700208187	keypress	left	left	synchronous
343.459425392095	3.394589908886701	keypress	left	right	asynchronous
346.3230637977831	2.863638405688107	keypress	left	left	synchronous
349.1333060609177	2.810242263134569	keypress	left	right	asynchronous
352.8481271471828	3.7148210862651467	keypress	left	left	synchronous
356.56103361584246	3.7129064686596394	keypress	left	right	asynchronous
358.7355780689977	2.1745444531552494	keypress	left	left	synchronous
362.82331011723727	4.087732048239559	keypress	left	right	asynchronous
368.39165691286325	5.568346795625985	keypress	left	left	synchronous
370.6772547061555	2.285597793292254	keypress	left	right	asynchronous
372.4342814357951	1.7570267296396196	keypress	left	left	synchronous
373.38924875389785	0.9549673181027174	keypress	left	right	asynchronous
374.8772074407898	1.4879586868919432	keypress	left	left	synchronous
376.20136641617864	1.3241589753888547	keypress	left	right	asynchronous
378.8057087152265	2.6043422990478575	keypress	left	left	synchronous
379.65381482895464	0.8481061137281358	keypress	left	right	asynchronous
380.7698462479748	1.1160314190201461	keypress	left	left	synchronous
381.77971354406327	1.009867296088487	keypress	left	right	asynchronous
384.2190381111577	2.4393245670944452	keypress	left	left	synchronous
387.1368601201102	2.9178220089524984	keypress	left	right	asynchronous
392.2307531181723	5.093892998062074	keypress	left	left	synchronous
395.0897759650834	2.8590228469111025	keypress	left	right	asynchronous
397.2079337169416	2.1181577518582344	keypress	left	left	synchronous
398.1623356449418	0.9544019280001521	keypress	left	right	asynchronous
400.3849570811726	2.2226214362308383	keypress	left	left	synchronous
401.2886720402166	0.9037149590440094	keypress	left	right	asynchronous
402.77665322786197	1.487981187645346	keypress	left	left	synchronous
403.6803542911075	0.9037010632455349	keypress	left	right	asynchronous
404.687597930897	1.0072436397895217	keypress	left	left	synchronous
406.491863837	1.8042659061029553	keypress	left	right	asynchronous
407.65951976319775	1.1676559261977673	keypress	left	left	synchronous
411.2648521210067	3.6053323578089476	keypress	left	right	asynchronous
414.87299884296954	3.6081467219628394	keypress	left	left	synchronous
419.3763041929342	4.5033053499646485	keypress	left	right	asynchronous
420.49179038917646	1.1154861962422729	keypress	left	left	synchronous
421.8768783500418	1.3850879608653486	keypress	left	right	asynchronous
425.1693877070211	3.2925093569792807	keypress	left	left	synchronous
428.1876936079934	3.0183059009723365	keypress	left	right	asynchronous
431.1594205768779	2.971726968884468	keypress	left	left	synchronous
432.11692827707157	0.9575077001936734	keypress	left	right	asynchronous
433.91947937197983	1.8025510949082673	keypress	left	left	synchronous
436.73372654011473	2.814247168134898	keypress	left	right	asynchronous
438.96373365214095	2.2300071120262146	keypress	left	left	synchronous
439.8650892749429	0.9013556228019297	keypress	left	right	asynchronous
440.92731194011867	1.0622226651757956	keypress	left	left	synchronous
442.0428574117832	1.1155454716645181	keypress	left	right	asynchronous
447.19521598517895	5.152358573395759	keypress	left	left	synchronous
451.3775952421129	4.1823792569339275	keypress	left	right	asynchronous
454.0831659780815	2.7055707359686494	keypress	left	left	synchronous
454.88022266700864	0.797056688927114	keypress	left	right	asynchronous
457.0025759199634	2.122353252954781	keypress	left	left	synchronous
458.8609073110856	1.8583313911221921	keypress	left	right	asynchronous
460.0840280437842	1.2231207326985896	keypress	left	left	synchronous
461.993938324973	1.909910281188786	keypress	left	right	asynchronous
464.0084248618223	2.01448653684929	keypress	left	left	synchronous
464.90906987618655	0.9006450143642724	keypress	left	right	asynchronous
467.1885580448434	2.279488168656826	keypress	left	left	synchronous
469.946733715944	2.7581756711006165	keypress	left	right	asynchronous
472.8691285219975	2.9223948060534894	keypress	left	left	synchronous
477.3754640878178	4.506335565820336	keypress	left	right	asynchronous
478.1713148751296	0.7958507873117924	keypress	left	left	synchronous
480.2394448528066	2.0681299776770175	keypress	left	right	asynchronous
482.2022325550206	1.9627877022139728	keypress	left	left	synchronous
483.16026486083865	0.9580323058180511	keypress	left	right	asynchronous
486.5563214481808	3.396056587342173	keypress	left	left	synchronous
487.6183251659386	1.0620037177577615	keypress	left	right	asynchronous
488.47011414915323	0.8517889832146466	keypress	left	left	synchronous
490.008728928864	1.5386147797107697	keypress	left	right	asynchronous
491.54569371882826	1.5369647899642587	keypress	left	left	synchronous
494.30826266715303	2.7625689483247697	keypress	left	right	asynchronous
498.2966033429839	3.988340675830841	keypress	left	left	synchronous
502.22108133416623	3.924477991182357	keypress	left	right	asynchronous
504.5570951490663	2.3360138149000704	keypress	left	left	synchronous
507.3637607730925	2.806665624026209	keypress	left	right	asynchronous
509.90969131700695	2.5459305439144373	keypress	left	left	synchronous
512.1884135399014	2.27872222289443	keypress	left	right	asynchronous
512.9321117722429	0.7436982323415577	keypress	left	left	synchronous
514.9999800091609	2.0678682369180024	keypress	left	right	asynchronous
516.4303263369948	1.4303463278338313	keypress	left	left	synchronous
517.9712258069776	1.5408994699828327	keypress	left	right	asynchronous
520.8914425629191	2.92021675594151	keypress	left	left	synchronous
522.640365856234	1.7489232933148742	keypress	left	right	asynchronous
523.8592532738112	1.218887417577207	keypress	left	left	synchronous
526.6143585969694	2.7551053231582046	keypress	left	right	asynchronous
529.1041651880369	2.489806591067463	keypress	left	left	synchronous
530.7504245238379	1.6462593358010054	keypress	left	right	asynchronous
532.1816432462074	1.4312187223695219	keypress	left	left	synchronous
533.13935348019	0.9577102339826524	keypress	left	right	asynchronous
536.0012751510367	2.861921670846641	keypress	left	left	synchronous
536.797608197201	0.7963330461643636	keypress	left	right	asynchronous
537.7543229172006	0.9567147199995816	keypress	left	left	synchronous
541.1454315651208	3.3911086479201913	keypress	left	right	asynchronous
546.7687988318503	5.623367266729474	keypress	left	left	synchronous
547.8809738182463	1.1121749863959849	keypress	left	right	asynchronous
549.6326724071987	1.7516985889524221	keypress	left	left	synchronous
553.7070184182376	4.07434601103887	keypress	left	right	asynchronous
555.9942410318181	2.287222613580525	keypress	left	left	synchronous
556.8431086400524	0.8488676082342863	keypress	left	right	asynchronous
558.7007229719311	1.8576143318787217	keypress	left	left	synchronous
563.3173467870802	4.616623815149069	keypress	left	right	asynchronous
565.9102633958682	2.592916608788073	keypress	left	left	synchronous
567.605386198964	1.6951228030957282	keypress	left	right	asynchronous
571.3197509171441	3.71436471818015	keypress	left	left	synchronous
572.2252497449517	0.9054988278076053	keypress	left	right	asynchronous
573.2865039319731	1.0612541870214045	keypress	left	left	synchronous
574.6709449938498	1.3844410618767142	keypress	left	right	asynchronous
575.6789318649098	1.007986871059984	keypress	left	left	synchronous
576.527305261232	0.8483733963221312	keypress	left	right	asynchronous
577.1615452822298	0.6342400209978223	keypress	left	left	synchronous
577.7996384971775	0.6380932149477303	keypress	left	right	asynchronous
579.2854685289785	1.4858300318010151	keypress	left	left	synchronous
582.6319097969681	3.346441267989576	keypress	left	right	asynchronous
585.0719430889003	2.4400332919321954	keypress	left	left	synchronous
588.9957389500923	3.9237958611920476	keypress	left	right	asynchronous
592.1767964069732	3.181057456880808	keypress	left	left	synchronous
593.9779008179903	1.8011044110171497	keypress	left	right	asynchronous
596.2103886250407	2.2324878070503473	keypress	left	left	synchronous
597.1659196708351	0.955531045794487	keypress	left	right	asynchronous
597.6991450968198	0.5332254259847105	keypress	left	left	synchronous
598.3351139300503	n/a	keypress	left	right	asynchronous
600.030055556912	n/a	end_rivalry	left	n/a	n/a
