onset	duration	trial	sync_side	key	dominant
0.0	n/a	start_rivalry	left	n/a	n/a
5.740040827542543	n/a	keypress	left	right	asynchronous
6.746845432557166	1.0068046050146222	keypress	left	left	synchronous
7.913338677026331	1.1664932444691658	keypress	left	right	asynchronous
10.516938582994044	2.6035999059677124	keypress	left	left	synchronous
15.559790490195155	5.042851907201111	keypress	left	right	asynchronous
21.40062285028398	5.840832360088825	keypress	left	left	synchronous
23.042872534133494	1.6422496838495135	keypress	left	right	asynchronous
25.585436089895666	2.5425635557621717	keypress	left	left	synchronous
27.92372291907668	2.3382868291810155	keypress	left	right	asynchronous
29.833441894501448	1.9097189754247665	keypress	left	left	synchronous
34.1301509719342	4.296709077432752	keypress	left	right	asynchronous
37.15980207268149	3.0296511007472873	keypress	left	left	synchronous
39.070184951648116	1.9103828789666295	keypress	left	right	asynchronous
40.928566820919514	1.8583818692713976	keypress	left	left	synchronous
43.15605494286865	2.2274881219491363	keypress	left	right	asynchronous
45.648165919817984	2.492110976949334	keypress	left	left	synchronous
48.510328033939004	2.86216211412102	keypress	left	right	asynchronous
50.89819051325321	2.387862479314208	keypress	left	left	synchronous
52.96379273571074	2.065602222457528	keypress	left	right	asynchronous
54.985231475904584	2.021438740193844	keypress	left	left	synchronous
56.63052252493799	1.6452910490334034	keypress	left	right	asynchronous
59.443422708660364	2.812900183722377	keypress	left	left	synchronous
62.67912970576435	3.235706997103989	keypress	left	right	asynchronous
64.90912312921137	2.229993423447013	keypress	left	left	synchronous
66.23600779939443	1.3268846701830626	keypress	left	right	asynchronous
69.7973902290687	3.5613824296742678	keypress	left	left	synchronous
71.70864721667022	1.9112569876015186	keypress	left	right	asynchronous
83.47434783540666	11.765700618736446	keypress	left	left	synchronous
85.4350548228249	1.9607069874182343	keypress	left	right	asynchronous
87.29209314379841	1.8570383209735155	keypress	left	left	synchronous
88.5147025519982	1.2226094081997871	keypress	left	right	asynchronous
90.42752379085869	1.912821238860488	keypress	left	left	synchronous
92.4981484124437	2.0706246215850115	keypress	left	right	asynchronous
93.24347553774714	0.7453271253034472	keypress	left	left	synchronous
94.62433808203787	1.3808625442907214	keypress	left	right	asynchronous
96.32658013049513	1.702242048457265	keypress	left	left	synchronous
97.75874804332852	1.4321679128333926	keypress	left	right	asynchronous
101.47030213102698	3.7115540876984596	keypress	left	left	synchronous
104.13067488092929	2.660372749902308	keypress	left	right	asynchronous
107.73411575518548	3.6034408742561936	keypress	left	left	synchronous
110.01428612973541	2.2801703745499253	keypress	left	right	asynchronous
111.18142862152308	1.167142491787672	keypress	left	left	synchronous
112.98664394952357	1.805215328000486	keypress	left	right	asynchronous
115.10639737267047	2.1197534231469035	keypress	left	left	synchronous
117.17299611773342	2.0665987450629473	keypress	left	right	asynchronous
119.72332933172584	2.550333213992417	keypress	left	left	synchronous
121.20616882666945	1.4828394949436188	keypress	left	right	asynchronous
123.75397979840636	2.547810971736908	keypress	left	left	synchronous
125.44927744008601	1.6952976416796446	keypress	left	right	asynchronous
127.20471094828099	1.755433508194983	keypress	left	left	synchronous
129.1209502769634	1.9162393286824226	keypress	left	right	asynchronous
130.97884047217667	1.8578901952132583	keypress	left	left	synchronous
132.41074667219073	1.4319062000140548	keypress	left	right	asynchronous
133.4182739118114	1.0075272396206856	keypress	left	left	synchronous
135.01507968176156	1.5968057699501514	keypress	left	right	asynchronous
137.08544694725424	2.0703672654926777	keypress	left	left	synchronous
140.4788698432967	3.393422896042466	keypress	left	right	asynchronous
143.0774545678869	2.5985847245901823	keypress	left	left	synchronous
144.4067036062479	1.329249038361013	keypress	left	right	asynchronous
146.36823666095734	1.9615330547094345	keypress	left	left	synchronous
148.91055281739682	2.542316156439483	keypress	left	right	asynchronous
151.66732945851982	2.756776641122997	keypress	left	left	synchronous
153.25794128328562	1.5906118247658014	keypress	left	right	asynchronous
156.98037388455123	3.7224326012656093	keypress	left	left	synchronous
159.68620858248323	2.705834697932005	keypress	left	right	asynchronous
161.48852333519608	1.8023147527128458	keypress	left	left	synchronous
163.14016040507704	1.6516370698809624	keypress	left	right	asynchronous
166.3797633582726	3.239602953195572	keypress	left	left	synchronous
169.35551019199193	2.975746833719313	keypress	left	right	asynchronous
172.64442346710712	3.288913275115192	keypress	left	left	synchronous
175.08462796453387	2.4402044974267483	keypress	left	right	asynchronous
177.1596296224743	2.0750016579404473	keypress	left	left	synchronous
178.11545460484922	0.9558249823749065	keypress	left	right	asynchronous
179.2306904392317	1.1152358343824744	keypress	left	left	synchronous
180.8262238819152	1.595533442683518	keypress	left	right	asynchronous
181.94256033096462	1.1163364490494132	keypress	left	left	synchronous
183.6411076458171	1.6985473148524761	keypress	left	right	asynchronous
187.02707631140947	3.3859686655923724	keypress	left	left	synchronous
190.79808748234063	3.7710111709311604	keypress	left	right	asynchronous
192.65123263932765	1.8531451569870114	keypress	left	left	synchronous
194.1868425104767	1.535609871149063	keypress	left	right	asynchronous
196.99821936618537	2.8113768557086587	keypress	left	left	synchronous
199.1204087221995	2.1221893560141325	keypress	left	right	asynchronous
202.72725647408515	3.6068477518856525	keypress	left	left	synchronous
204.47910351213068	1.7518470380455256	keypress	left	right	asynchronous
206.01923486683518	1.5401313547044992	keypress	left	left	synchronous
209.15288395341486	3.1336490865796804	keypress	left	right	asynchronous
212.96956841088831	3.816684457473457	keypress	left	left	synchronous
215.45906185451895	2.4894934436306357	keypress	left	right	asynchronous
216.99415654223412	1.5350946877151728	keypress	left	left	synchronous
219.21941488422453	2.2252583419904113	keypress	left	right	asynchronous
220.59945286531	1.3800379810854793	keypress	left	left	synchronous
223.89042591117322	3.290973045863211	keypress	left	right	asynchronous
225.75024694390595	1.8598210327327251	keypress	left	left	synchronous
226.76054264977574	1.010295705869794	keypress	left	right	asynchronous
229.09716281108558	2.3366201613098383	keypress	left	left	synchronous
231.33060742914677	2.233444618061185	keypress	left	right	asynchronous
233.24147640913725	1.9108689799904823	keypress	left	left	synchronous
235.41670179273933	2.1752253836020827	keypress	left	right	asynchronous
238.59903542604297	3.1823336333036423	keypress	left	left	synchronous
240.71790696587414	2.1188715398311615	keypress	left	right	asynchronous
243.48105304129422	2.7631460754200816	keypress	left	left	synchronous
246.02353156078607	2.5424785194918513	keypress	left	right	asynchronous
247.82941307127476	1.805881510488689	keypress	left	left	synchronous
251.75409640930593	3.9246833380311728	keypress	left	right	asynchronous
254.94487955980003	3.1907831504940987	keypress	left	left	synchronous
256.22121781948954	1.2763382596895099	keypress	left	right	asynchronous
257.3383692028001	1.1171513833105564	keypress	left	left	synchronous
260.04303312767297	2.704663924872875	keypress	left	right	asynchronous
263.9200981222093	3.8770649945363402	keypress	left	left	synchronous
265.56480886414647	1.6447107419371605	keypress	left	right	asynchronous
266.9442903222516	1.3794814581051469	keypress	left	left	synchronous
269.2298811711371	2.2855908488854766	keypress	left	right	asynchronous
270.7692077057436	1.5393265346065164	keypress	left	left	synchronous
274.74060697108507	3.9713992653414607	keypress	left	right	asynchronous
276.1211585365236	1.380551565438509	keypress	left	left	synchronous
279.303627721034	3.18246918451041	keypress	left	right	asynchronous
282.54072164092213	3.2370939198881388	keypress	left	left	synchronous
284.827516191639	2.286794550716877	keypress	left	right	asynchronous
286.4158782809973	1.5883620893582702	keypress	left	left	synchronous
290.71309762075543	4.297219339758158	keypress	left	right	asynchronous
294.64086862280965	3.9277710020542145	keypress	left	left	synchronous
296.816436345689	2.17556772287935	keypress	left	right	asynchronous
298.83015911467373	2.013722768984735	keypress	left	left	synchronous
303.3431773716584	4.513018256984651	keypress	left	right	asynchronous
307.6406177030876	4.297440331429243	keypress	left	left	synchronous
309.9261433593929	2.2855256563052535	keypress	left	right	asynchronous
313.7468727240339	3.8207293646410108	keypress	left	left	synchronous
315.6015228210017	1.8546500969678164	keypress	left	right	asynchronous
317.4034956358373	1.801972814835608	keypress	left	left	synchronous
321.1242786720395	3.7207830362021923	keypress	left	right	asynchronous
322.8228167910129	1.6985381189733744	keypress	left	left	synchronous
323.99091897625476	1.168102185241878	keypress	left	right	asynchronous
326.6494410568848	2.658522080630064	keypress	left	left	synchronous
328.4003151888028	1.7508741319179535	keypress	left	right	asynchronous
329.4080557022244	1.007740513421595	keypress	left	left	synchronous
330.83905696775764	1.4310012655332685	keypress	left	right	asynchronous
332.16668602544814	1.3276290576905012	keypress	left	left	synchronous
336.2473950861022	4.080709060654044	keypress	left	right	asynchronous
341.50383035466075	5.256435268558562	keypress	left	left	synchronous
343.0965418582782	1.5927115036174655	keypress	left	right	asynchronous
343.7854673191905	0.6889254609122872	keypress	left	left	synchronous
345.27365308534354	1.4881857661530375	keypress	left	right	asynchronous
345.85946570523083	0.5858126198872924	keypress	left	left	synchronous
347.2925061834976	1.4330404782667756	keypress	left	right	asynchronous
348.2486307611689	0.9561245776712894	keypress	left	left	synchronous
351.38402450364083	3.1353937424719334	keypress	left	right	asynchronous
351.9706391431391	0.5866146394982934	keypress	left	left	synchronous
354.9431401444599	2.9725010013207793	keypress	left	right	asynchronous
359.3427471425384	4.399606998078525	keypress	left	left	synchronous
362.1592435762286	2.8164964336901903	keypress	left	right	asynchronous
364.38391205575317	2.224668479524553	keypress	left	left	synchronous
366.71866193413734	2.334749878384173	keypress	left	right	asynchronous
369.0507036484778	2.3320417143404484	keypress	left	left	synchronous
370.2256911629811	1.1749875145033002	keypress	left	right	asynchronous
371.7124301288277	1.4867389658465981	keypress	left	left	synchronous
374.0987654365599	2.3863353077322245	keypress	left	right	asynchronous
375.7996374806389	1.7008720440790057	keypress	left	left	synchronous
378.4050098611042	2.605372380465269	keypress	left	right	asynchronous
379.3599736066535	0.9549637455493212	keypress	left	left	synchronous
381.06158359348774	1.701609986834228	keypress	left	right	asynchronous
381.96350001264364	0.9019164191558957	keypress	left	left	synchronous
382.86697606835514	0.9034760557115078	keypress	left	right	asynchronous
386.20485286880285	3.3378768004477024	keypress	left	left	synchronous
387.89758695382625	1.6927340850234032	keypress	left	right	asynchronous
389.9719996964559	2.0744127426296473	keypress	left	left	synchronous
392.8402904449031	2.86829074844718	keypress	left	right	asynchronous
398.99719552509487	6.156905080191791	keypress	left	left	synchronous
401.3337038513273	2.3365083262324333	keypress	left	right	asynchronous
404.7774058142677	3.443701962940395	keypress	left	left	synchronous
405.99954225867987	1.2221364444121718	keypress	left	right	asynchronous
407.5909051876515	1.5913629289716482	keypress	left	left	synchronous
409.55937985889614	1.9684746712446213	keypress	left	right	asynchronous
411.8424909133464	2.2831110544502735	keypress	left	left	synchronous
414.5580595638603	2.7155686505138874	keypress	left	right	asynchronous
418.4399394597858	3.881879895925522	keypress	left	left	synchronous
422.31952854897827	3.87958908919245	keypress	left	right	asynchronous
423.59063726011664	1.2711087111383677	keypress	left	left	synchronous
425.5512025123462	1.9605652522295713	keypress	left	right	asynchronous
426.8791039371863	1.3279014248400927	keypress	left	left	synchronous
430.3329528849572	3.4538489477708936	keypress	left	right	asynchronous
433.68135675694793	3.3484038719907403	keypress	left	left	synchronous
438.02659892849624	4.345242171548307	keypress	left	right	asynchronous
442.9661278007552	4.939528872258961	keypress	left	left	synchronous
445.7249387651682	2.7588109644129872	keypress	left	right	asynchronous
450.715902752243	4.990963987074792	keypress	left	left	synchronous
452.36516857426614	1.6492658220231533	keypress	left	right	asynchronous
455.2272693114355	2.862100737169385	keypress	left	left	synchronous
456.55830584280193	1.3310365313664079	keypress	left	right	asynchronous
457.4055423317477	0.8472364889457822	keypress	left	left	synchronous
458.2024416727945	0.7968993410468102	keypress	left	right	asynchronous
458.84056050889194	0.6381188360974193	keypress	left	left	synchronous
460.4346688091755	1.5941083002835512	keypress	left	right	asynchronous
462.5040798801929	2.0694110710173845	keypress	left	left	synchronous
465.26367047522217	2.7595905950292945	keypress	left	right	asynchronous
470.10469824820757	4.841027772985399	keypress	left	left	synchronous
471.0634221890941	0.9587239408865571	keypress	left	right	asynchronous
471.80542789027095	0.7420057011768222	keypress	left	left	synchronous
473.8766111554578	2.0711832651868463	keypress	left	right	asynchronous
477.2772734314203	3.4006622759625316	keypress	left	left	synchronous
478.9738189140335	1.6965454826131463	keypress	left	right	asynchronous
479.9822298800573	1.0084109660238028	keypress	left	left	synchronous
481.7374335145578	1.7552036345005035	keypress	left	right	asynchronous
483.2768488768488	1.539415362291038	keypress	left	left	synchronous
484.39535397291183	1.1185050960630178	keypress	left	right	asynchronous
487.2066657599062	2.811311786994338	keypress	left	left	synchronous
490.1774955904111	2.970829830504954	keypress	left	right	asynchronous
493.3152129203081	3.1377173298969865	keypress	left	left	synchronous
494.3244112757966	1.0091983554884791	keypress	left	right	asynchronous
495.91650464665145	1.5920933708548546	keypress	left	left	synchronous
498.836350874044	2.9198462273925543	keypress	left	right	asynchronous
500.959701359272	2.123350485228002	keypress	left	left	synchronous
503.402683082968	2.4429817236959934	keypress	left	right	asynchronous
505.7934755664319	2.3907924834638834	keypress	left	left	synchronous
507.3333171950653	1.5398416286334395	keypress	left	right	asynchronous
508.86618836410344	1.532871169038117	keypress	left	left	synchronous
509.5547818513587	0.6885934872552752	keypress	left	right	asynchronous
510.2994034383446	0.7446215869858861	keypress	left	left	synchronous
511.3068436635658	1.0074402252212167	keypress	left	right	asynchronous
512.6378647023812	1.3310210388153791	keypress	left	left	synchronous
515.0719912899658	2.4341265875846148	keypress	left	right	asynchronous
516.0803391430527	1.0083478530868888	keypress	left	left	synchronous
517.8346899570897	1.754350814037025	keypress	left	right	asynchronous
519.8523822678253	2.0176923107355833	keypress	left	left	synchronous
522.4012962756678	2.5489140078425407	keypress	left	right	asynchronous
526.7496565217152	4.348360246047378	keypress	left	left	synchronous
527.8089693449438	1.059312823228538	keypress	left	right	asynchronous
528.4468646217138	0.6378952767699957	keypress	left	left	synchronous
532.0033333366737	3.5564687149599195	keypress	left	right	asynchronous
533.8095952551812	1.8062619185075164	keypress	left	left	synchronous
535.6120469458401	1.802451690658927	keypress	left	right	asynchronous
537.6797283384949	2.0676813926547766	keypress	left	left	synchronous
541.0762657169253	3.3965373784303665	keypress	left	right	asynchronous
545.9147647311911	4.838499014265835	keypress	left	left	synchronous
549.3102028062567	3.395438075065613	keypress	left	right	asynchronous
551.5926782414317	2.2824754351750016	keypress	left	left	synchronous
554.3044645721093	2.711786330677569	keypress	left	right	asynchronous
557.1141670709476	2.8097024988383055	keypress	left	left	synchronous
559.0840401798487	1.9698731089010835	keypress	left	right	asynchronous
561.4805395668373	2.3964993869885802	keypress	left	left	synchronous
563.6036405852064	2.123101018369198	keypress	left	right	asynchronous
565.6193419648334	2.0157013796269894	keypress	left	left	synchronous
567.1010433677584	1.481701402924955	keypress	left	right	asynchronous
570.6527605904266	3.5517172226682305	keypress	left	left	synchronous
574.7386002624407	4.085839672014117	keypress	left	right	asynchronous
581.4275345699862	6.6889343075454235	keypress	left	left	synchronous
584.1923318058252	2.764797235839069	keypress	left	right	asynchronous
585.8897897787392	1.6974579729139805	keypress	left	left	synchronous
586.8438699934632	0.9540802147239447	keypress	left	right	asynchronous
587.4299010010436	0.5860310075804591	keypress	left	left	synchronous
590.2430131128058	2.813112111762166	keypress	left	right	asynchronous
592.9500157954171	2.7070026826113462	keypress	left	left	synchronous
593.6381699899212	0.6881541945040226	keypress	left	right	asynchronous
597.3449816731736	n/a	keypress	left	left	synchronous
600.0457223048434	n/a	end_rivalry	left	n/a	n/a
