onset	duration	trial	sync_side	key	dominant
0.0	n/a	start_rivalry	right	n/a	n/a
12.412946523167193	n/a	keypress	right	left	asynchronous
13.472747549880296	1.059801026713103	keypress	right	right	synchronous
16.711255456786603	3.2385079069063067	keypress	right	left	asynchronous
20.47832457907498	3.767069122288376	keypress	right	right	synchronous
23.342699990142137	2.864375411067158	keypress	right	left	asynchronous
27.47810918884352	4.135409198701382	keypress	right	right	synchronous
32.41129799792543	4.933188809081912	keypress	right	left	asynchronous
34.53776994906366	2.126471951138228	keypress	right	right	synchronous
35.97036971477792	1.432599765714258	keypress	right	left	asynchronous
39.21228085597977	3.2419111412018538	keypress	right	right	synchronous
40.9636141420342	1.7513332860544324	keypress	right	left	asynchronous
41.86713642207906	0.9035222800448537	keypress	right	right	synchronous
43.56095033790916	1.6938139158301055	keypress	right	left	asynchronous
44.62148196808994	1.0605316301807761	keypress	right	right	synchronous
46.478233001194894	1.8567510331049562	keypress	right	left	asynchronous
49.030792924109846	2.552559922914952	keypress	right	right	synchronous
50.9410923239775	1.9102993998676538	keypress	right	left	asynchronous
53.967827185988426	3.026734862010926	keypress	right	right	synchronous
56.249566128943115	2.2817389429546893	keypress	right	left	asynchronous
58.534713332075626	2.28514720313251	keypress	right	right	synchronous
60.28428905783221	1.7495757257565856	keypress	right	left	asynchronous
61.45019925106317	1.1659101932309568	keypress	right	right	synchronous
63.41288196388632	1.9626827128231525	keypress	right	left	asynchronous
65.00421060901135	1.5913286451250315	keypress	right	right	synchronous
66.11840616213158	1.1141955531202257	keypress	right	left	asynchronous
66.7034159488976	0.5850097867660224	keypress	right	right	synchronous
67.60438912408426	0.9009731751866639	keypress	right	left	asynchronous
69.09005418093875	1.4856650568544865	keypress	right	right	synchronous
69.6208921847865	0.530838003847748	keypress	right	left	asynchronous
70.20468227379024	0.5837900890037417	keypress	right	right	synchronous
71.74777609715238	1.5430938233621418	keypress	right	left	asynchronous
73.39569853013381	1.6479224329814315	keypress	right	right	synchronous
75.67691843118519	2.2812199010513723	keypress	right	left	asynchronous
77.376570452936	1.6996520217508078	keypress	right	right	synchronous
79.12390303518623	1.7473325822502375	keypress	right	left	asynchronous
80.13533175503835	1.0114287198521197	keypress	right	right	synchronous
81.24845233885571	1.1131205838173628	keypress	right	left	asynchronous
83.15465635620058	1.9062040173448622	keypress	right	right	synchronous
86.76377362990752	3.609117273706943	keypress	right	left	asynchronous
89.20374753605574	2.439973906148225	keypress	right	right	synchronous
90.42363754985854	1.2198900138027966	keypress	right	left	asynchronous
90.89960280293599	0.4759652530774474	keypress	right	right	synchronous
92.5947574027814	1.6951545998454094	keypress	right	left	asynchronous
95.29960616678	2.704848763998598	keypress	right	right	synchronous
98.06432767119259	2.7647215044125915	keypress	right	left	asynchronous
100.39552447479218	2.331196803599596	keypress	right	right	synchronous
101.45850132685155	1.0629768520593643	keypress	right	left	asynchronous
102.68235165579244	1.2238503289408982	keypress	right	right	synchronous
105.54832201916724	2.8659703633747995	keypress	right	left	asynchronous
107.30461550690234	1.7562934877350926	keypress	right	right	synchronous
109.0001020510681	1.6954865441657603	keypress	right	left	asynchronous
111.70698691206053	2.7068848609924316	keypress	right	right	synchronous
113.7788632242009	2.0718763121403754	keypress	right	left	asynchronous
115.26713671488687	1.4882734906859696	keypress	right	right	synchronous
117.0710313571617	1.8038946422748268	keypress	right	left	asynchronous
119.40909350197762	2.338062144815922	keypress	right	right	synchronous
121.90339742507786	2.494303923100233	keypress	right	left	asynchronous
124.08355872193351	2.1801612968556583	keypress	right	right	synchronous
126.15281558316201	2.069256861228496	keypress	right	left	asynchronous
129.7086649951525	3.5558494119904935	keypress	right	right	synchronous
132.2086395388469	2.4999745436944067	keypress	right	left	asynchronous
133.857475718949	1.64883618010208	keypress	right	right	synchronous
135.23582796519622	1.378352246247232	keypress	right	left	asynchronous
137.20249582501128	1.966667859815061	keypress	right	right	synchronous
138.63422840088606	1.4317325758747756	keypress	right	left	asynchronous
140.5915039028041	1.9572755019180477	keypress	right	right	synchronous
142.39270693110302	1.8012030282989144	keypress	right	left	asynchronous
143.03091050079092	0.6382035696879029	keypress	right	right	synchronous
144.8938298379071	1.8629193371161819	keypress	right	left	asynchronous
147.49308928195387	2.5992594440467656	keypress	right	right	synchronous
150.5749267740175	3.0818374920636415	keypress	right	left	asynchronous
152.95827992493287	2.3833531509153545	keypress	right	right	synchronous
155.4505989397876	2.492319014854729	keypress	right	left	asynchronous
157.0455816942267	1.5949827544391155	keypress	right	right	synchronous
159.4393720207736	2.3937903265468776	keypress	right	left	asynchronous
161.93363191885874	2.494259898085147	keypress	right	right	synchronous
164.32698790822178	2.3933559893630445	keypress	right	left	asynchronous
166.7647939841263	2.4378060759045184	keypress	right	right	synchronous
168.46272959094495	1.6979356068186462	keypress	right	left	asynchronous
170.80102480808273	2.3382952171377838	keypress	right	right	synchronous
172.71143672801554	1.9104119199328125	keypress	right	left	asynchronous
174.94637501984835	2.2349382918328047	keypress	right	right	synchronous
175.90221148403361	0.9558364641852677	keypress	right	left	asynchronous
176.85968784196302	0.9574763579294086	keypress	right	right	synchronous
180.35851618787274	3.4988283459097147	keypress	right	left	asynchronous
186.18968821316957	5.831172025296837	keypress	right	right	synchronous
191.33142781304196	5.1417395998723805	keypress	right	left	asynchronous
197.43462241021916	6.1031945971772075	keypress	right	right	synchronous
200.66830411320552	3.2336817029863596	keypress	right	left	asynchronous
202.10413466300815	1.4358305498026311	keypress	right	right	synchronous
204.01636505313218	1.912230390124023	keypress	right	left	asynchronous
205.8212136500515	1.804848596919328	keypress	right	right	synchronous
207.5219282428734	1.700714592821896	keypress	right	left	asynchronous
209.80324710905552	2.2813188661821187	keypress	right	right	synchronous
212.39999024989083	2.596743140835315	keypress	right	left	asynchronous
214.05396897392347	1.6539787240326405	keypress	right	right	synchronous
215.32675270410255	1.2727837301790714	keypress	right	left	asynchronous
218.08580444986	2.7590517457574606	keypress	right	right	synchronous
221.00492420606315	2.919119756203145	keypress	right	left	asynchronous
224.19131011981517	3.1863859137520194	keypress	right	right	synchronous
227.80022566812113	3.6089155483059585	keypress	right	left	asynchronous
230.55868499400094	2.7584593258798122	keypress	right	right	synchronous
232.31560038402677	1.7569153900258243	keypress	right	left	asynchronous
234.4372438499704	2.1216434659436345	keypress	right	right	synchronous
239.58175926608965	5.144515416119248	keypress	right	left	asynchronous
242.71110440511256	3.1293451390229166	keypress	right	right	synchronous
244.56874526990578	1.8576408647932112	keypress	right	left	asynchronous
248.5990252881311	4.030280018225312	keypress	right	right	synchronous
251.83452993584797	3.23550464771688	keypress	right	left	asynchronous
253.84975810581818	2.0152281699702144	keypress	right	right	synchronous
256.0804985752329	2.230740469414741	keypress	right	left	asynchronous
258.3633424099535	2.282843834720552	keypress	right	right	synchronous
260.74948188615963	2.3861394762061536	keypress	right	left	asynchronous
263.1371619650163	2.387680078856647	keypress	right	right	synchronous
265.2074326011352	2.0702706361189485	keypress	right	left	asynchronous
265.57767861383036	0.3702460126951337	keypress	right	right	synchronous
267.4889557790011	1.911277165170759	keypress	right	left	asynchronous
269.18552382010967	1.6965680411085486	keypress	right	right	synchronous
272.21870100777596	3.033177187666297	keypress	right	left	asynchronous
278.2146789589897	5.9959779512137175	keypress	right	right	synchronous
280.97566412203014	2.760985163040459	keypress	right	left	asynchronous
283.89727238891646	2.9216082668863237	keypress	right	right	synchronous
286.8716799290851	2.974407540168613	keypress	right	left	asynchronous
290.79442958999425	3.922749660909176	keypress	right	right	synchronous
293.9233054770157	3.1288758870214224	keypress	right	left	asynchronous
296.15098559996113	2.2276801229454577	keypress	right	right	synchronous
297.5820078421384	1.4310222421772778	keypress	right	left	asynchronous
299.33779336698353	1.7557855248451233	keypress	right	right	synchronous
303.7411208548583	4.403327487874776	keypress	right	left	asynchronous
307.50637040892616	3.76524955406785	keypress	right	right	synchronous
311.3255877131596	3.8192173042334616	keypress	right	left	asynchronous
313.44602371007204	2.12043599691242	keypress	right	right	synchronous
314.50896677421406	1.0629430641420186	keypress	right	left	asynchronous
316.6812718338333	2.172305059619248	keypress	right	right	synchronous
318.59145529707894	1.9101834632456303	keypress	right	left	asynchronous
320.23445793706924	1.6430026399903	keypress	right	right	synchronous
321.6689872769639	1.4345293398946524	keypress	right	left	asynchronous
324.64288503304124	2.973897756077349	keypress	right	right	synchronous
326.6044860482216	1.9616010151803493	keypress	right	left	asynchronous
328.411041662097	1.806555613875389	keypress	right	right	synchronous
330.3693077568896	1.9582660947926342	keypress	right	left	asynchronous
331.2698650402017	0.9005572833120823	keypress	right	right	synchronous
335.0384588618763	3.7685938216745853	keypress	right	left	asynchronous
339.2835583910346	4.245099529158324	keypress	right	right	synchronous
342.73840658785775	3.45484819682315	keypress	right	left	asynchronous
345.4463465870358	2.707939999178052	keypress	right	right	synchronous
349.27167897485197	3.825332387816161	keypress	right	left	asynchronous
352.56258507817984	3.2909061033278704	keypress	right	right	synchronous
357.4361223508604	4.873537272680551	keypress	right	left	asynchronous
361.7845191131346	4.348396762274206	keypress	right	right	synchronous
362.95392759889364	1.1694084857590497	keypress	right	left	asynchronous
364.28256925102323	1.3286416521295905	keypress	right	right	synchronous
366.13718714006245	1.8546178890392184	keypress	right	left	asynchronous
368.05028017703444	1.9130930369719863	keypress	right	right	synchronous
370.9710821178742	2.9208019408397377	keypress	right	left	asynchronous
373.46983179077506	2.4987496729008853	keypress	right	right	synchronous
375.6478606099263	2.1780288191512227	keypress	right	left	asynchronous
377.34774526720867	1.6998846572823822	keypress	right	right	synchronous
379.7400008831173	2.3922556159086525	keypress	right	left	asynchronous
382.2346402402036	2.494639357086271	keypress	right	right	synchronous
383.30065430514514	1.0660140649415553	keypress	right	left	asynchronous
385.58350342605263	2.2828491209074855	keypress	right	right	synchronous
388.02229263819754	2.4387892121449113	keypress	right	left	asynchronous
390.40772097278386	2.3854283345863223	keypress	right	right	synchronous
391.5245274119079	1.1168064391240478	keypress	right	left	asynchronous
393.0632501328364	1.5387227209284902	keypress	right	right	synchronous
395.34672240307555	2.2834722702391446	keypress	right	left	asynchronous
400.01737043680623	4.670648033730686	keypress	right	right	synchronous
403.5743509521708	3.5569805153645575	keypress	right	left	asynchronous
406.0167844821699	2.442433529999107	keypress	right	right	synchronous
409.09865735378116	3.0818728716112673	keypress	right	left	asynchronous
411.00758190313354	1.9089245493523777	keypress	right	right	synchronous
413.0302653061226	2.0226834029890597	keypress	right	left	asynchronous
416.48048476688564	3.450219460763037	keypress	right	right	synchronous
419.2392562199384	2.758771453052759	keypress	right	left	asynchronous
422.1551209189929	2.9158646990545094	keypress	right	right	synchronous
424.4936657221988	2.3385448032058775	keypress	right	left	asynchronous
427.93929260689765	3.445626884698868	keypress	right	right	synchronous
429.36921518016607	1.4299225732684135	keypress	right	left	asynchronous
430.91028133407235	1.5410661539062858	keypress	right	right	synchronous
433.6692307679914	2.7589494339190423	keypress	right	left	asynchronous
435.473340745084	1.804109977092594	keypress	right	right	synchronous
437.8615250787698	2.3881843336857855	keypress	right	left	asynchronous
440.35590773588046	2.494382657110691	keypress	right	right	synchronous
442.8490937859751	2.493186050094664	keypress	right	left	asynchronous
444.973531938158	2.1244381521828473	keypress	right	right	synchronous
447.7801551432349	2.806623205076903	keypress	right	left	asynchronous
451.4481691219844	3.6680139787495136	keypress	right	right	synchronous
454.52767711598426	3.0795079939998686	keypress	right	left	asynchronous
456.4876837087795	1.9600065927952528	keypress	right	right	synchronous
458.5607413328253	2.0730576240457594	keypress	right	left	asynchronous
463.80775051983073	5.24700918700546	keypress	right	right	synchronous
467.36969607695937	3.561945557128638	keypress	right	left	asynchronous
469.33070472208783	1.9610086451284587	keypress	right	right	synchronous
472.93901561014354	3.608310888055712	keypress	right	left	asynchronous
476.3860986609943	3.447083050850779	keypress	right	right	synchronous
477.60880695609376	1.2227082950994372	keypress	right	left	asynchronous
479.4140845378861	1.8052775817923248	keypress	right	right	synchronous
481.1597259710543	1.7456414331682026	keypress	right	left	asynchronous
485.51363627798855	4.353910306934267	keypress	right	right	synchronous
488.4329659361392	2.919329658150673	keypress	right	left	asynchronous
493.42214008187875	4.989174145739526	keypress	right	right	synchronous
497.9322333377786	4.5100932558998466	keypress	right	left	asynchronous
500.2642804621719	2.3320471243932843	keypress	right	right	synchronous
502.2235477678478	1.959267305675894	keypress	right	left	asynchronous
507.37036587204784	5.146818104200065	keypress	right	right	synchronous
511.8319878010079	4.461621928960085	keypress	right	left	asynchronous
514.2724921428598	2.44050434185192	keypress	right	right	synchronous
516.8171909768134	2.544698833953589	keypress	right	left	asynchronous
520.2630465659313	3.445855589117855	keypress	right	right	synchronous
523.7099431511015	3.4468965851701796	keypress	right	left	asynchronous
525.8341102767736	2.124167125672102	keypress	right	right	synchronous
528.6971221221611	2.8630118453875184	keypress	right	left	asynchronous
530.3384398748167	1.6413177526555955	keypress	right	right	synchronous
532.6767430230975	2.338303148280829	keypress	right	left	asynchronous
536.2885220837779	3.611779060680419	keypress	right	right	synchronous
539.1535026128404	2.86498052906245	keypress	right	left	asynchronous
542.707194707822	3.5536920949816704	keypress	right	right	synchronous
543.3442075811327	0.6370128733105958	keypress	right	left	asynchronous
544.4556619632058	1.1114543820731342	keypress	right	right	synchronous
545.6242158082314	1.168553845025599	keypress	right	left	asynchronous
548.282633910887	2.65841810265556	keypress	right	right	synchronous
550.7718930318952	2.4892591210082173	keypress	right	left	asynchronous
552.1484182081185	1.3765251762233675	keypress	right	right	synchronous
554.0028792559169	1.8544610477983952	keypress	right	left	asynchronous
555.5382704189979	1.5353911630809307	keypress	right	right	synchronous
559.0379865071736	3.4997160881757736	keypress	right	left	asynchronous
559.8852706649341	0.8472841577604413	keypress	right	right	synchronous
560.9454538919963	1.0601832270622253	keypress	right	left	asynchronous
564.6085948441178	3.6631409521214664	keypress	right	right	synchronous
569.8031806647778	5.194585820659995	keypress	right	left	asynchronous
572.9332406790927	3.1300600143149495	keypress	right	right	synchronous
574.257617041003	1.3243763619102538	keypress	right	left	asynchronous
576.9050856898539	2.647468648850918	keypress	right	right	synchronous
577.9173542521894	1.012268562335521	keypress	right	left	asynchronous
579.3551038531587	1.437749600969255	keypress	right	right	synchronous
582.0063308519311	2.651226998772472	keypress	right	left	asynchronous
582.3790987441316	0.3727678922004998	keypress	right	right	synchronous
583.4447708590887	1.065672114957124	keypress	right	left	asynchronous
585.7831751620397	2.3384043029509485	keypress	right	right	synchronous
589.9234607787803	4.140285616740584	keypress	right	left	asynchronous
593.7516294009984	3.8281686222180724	keypress	right	right	synchronous
597.3022600249387	n/a	keypress	right	left	asynchronous
600.0082552991807	n/a	end_rivalry	right	n/a	n/a
